time, ECG, accX, accY, accZ, gyroX, gyroY, gyroZ, temp
2047,1092,1.613692,8.157045,-4.651934,-0.09566,1.083703,-0.168404,21.494705
2057,1107,1.733402,8.180987,-4.589684,-0.127902,1.09596,-0.148953,21.491764
2067,1077,1.865083,8.145074,-4.565742,-0.156413,1.104753,-0.130833,21.512352
2077,1095,1.989582,8.104373,-4.515464,-0.173201,1.132466,-0.11298,21.50647
2087,1077,2.142811,7.975086,-4.376601,-0.211571,1.150851,-0.089798,21.52706
2097,976,2.286463,7.912837,-4.27365,-0.264597,1.132998,-0.064484,21.535883
2107,816,2.322376,7.893683,-4.201824,-0.30057,1.120475,-0.046098,21.532942
2117,757,2.312799,7.867347,-4.218584,-0.3043,1.132998,-0.038104,21.50647
2127,861,2.355895,7.807492,-4.264073,-0.303501,1.147387,-0.024248,21.503529
2137,894,2.533065,7.750031,-4.201824,-0.327482,1.158046,-0.00826,21.497646
2147,1078,2.715025,7.714118,-4.019865,-0.353329,1.157247,0.007727,21.515295
2157,1137,2.911349,7.678205,-3.955221,-0.38344,1.116211,0.018919,21.515295
2167,1334,3.107674,7.723695,-3.955221,-0.425008,1.045599,0.028511,21.509411
2177,1455,3.232172,7.69257,-3.969586,-0.473504,0.946741,0.014123,21.515295
2187,1527,3.04303,7.759608,-3.938462,-0.527329,0.834294,-0.010925,21.500587
2197,1520,2.782062,7.893683,-4.027047,-0.575825,0.751691,-0.029311,21.515295
2207,1610,2.47321,8.166622,-4.055778,-0.591547,0.723446,-0.067681,21.512352
2217,1673,2.147599,8.360553,-3.931279,-0.612331,0.753556,-0.114046,21.503529
2227,1767,1.877054,8.408437,-3.809175,-0.648303,0.819639,-0.12577,21.503529
2237,1769,1.972822,8.595184,-3.706224,-0.689605,0.930753,-0.163608,21.518236
2247,1777,1.896208,8.896853,-3.921702,-0.727443,1.011758,-0.169737,21.512352
2257,1745,2.185906,9.045294,-3.696647,-0.783666,1.084502,-0.147887,21.518236
2267,1813,2.5187,9.275137,-3.246537,-0.837758,1.137528,-0.161476,21.521177
2277,1621,2.674323,9.454702,-3.263297,-0.888386,1.13966,-0.128435,21.503529
2287,1485,3.10528,9.497798,-3.055001,-0.927023,1.109017,-0.120441,21.509411
2297,1333,3.368642,9.68694,-2.707842,-0.925158,1.040802,-0.131632,21.509411
2307,1267,3.473987,9.756371,-2.525883,-0.892116,0.930753,-0.120175,21.521177
2317,1279,3.65834,9.698911,-2.47321,-0.846551,0.823369,-0.108717,21.535883
2327,1175,3.768473,9.725247,-2.37026,-0.778337,0.736769,-0.11751,21.521177
2337,1232,3.89776,9.691729,-2.317587,-0.693602,0.649902,-0.110315,21.52706
2347,1309,3.998317,9.598354,-2.27928,-0.608334,0.561703,-0.085801,21.524118
2379,1321,4.285621,9.090784,-2.118869,-0.336542,0.256603,-0.056757,21.541765
2390,1278,4.280833,8.944737,-2.11408,-0.28698,0.134297,-0.05276,21.530001
2400,1414,4.292804,8.880095,-1.963245,-0.249942,0.018652,-0.057289,21.544706
2410,1481,4.240131,8.889671,-1.924938,-0.220897,-0.102322,-0.052227,21.532942
2420,1615,4.127604,8.904037,-1.989582,-0.220098,-0.227026,-0.044499,21.532942
2430,1674,3.969586,9.01417,-2.054225,-0.242214,-0.333078,-0.048496,21.530001
2440,1721,3.828329,9.157822,-2.054225,-0.271525,-0.428472,-0.05649,21.524118
2450,1702,3.588908,9.358934,-2.080561,-0.291776,-0.523865,-0.079939,21.524118
2460,1698,3.306392,9.526528,-2.267309,-0.290444,-0.596077,-0.099657,21.518236
2470,1653,2.987964,9.631873,-2.382231,-0.265397,-0.626986,-0.111914,21.535883
2480,1779,2.717419,9.662998,-2.430115,-0.222496,-0.613397,-0.122306,21.524118
2490,1908,2.590526,9.706094,-2.434903,-0.164407,-0.55664,-0.124172,21.515295
2500,1919,2.667141,9.787497,-2.185906,-0.096459,-0.479366,-0.119109,21.538824
2510,1936,2.784456,9.883265,-1.94888,-0.035972,-0.417014,-0.102055,21.541765
2520,1982,2.89459,10.024523,-2.006341,-0.001066,-0.39543,-0.072478,21.547647
2530,1914,2.956839,10.175357,-2.126051,-0.000799,-0.41275,-0.037038,21.538824
2540,1878,2.964022,10.287885,-2.25055,-0.009593,-0.428738,-0.009859,21.52706
2550,1969,3.0143,10.357317,-2.293645,0.002398,-0.437531,0.010392,21.512352
2560,2063,3.124433,10.139444,-2.214637,0.004796,-0.473504,0.018386,21.52706
2570,2191,3.069367,9.646238,-2.439692,-0.038104,-0.51827,0.010925,21.532942
2580,2153,2.851494,9.289502,-2.755726,-0.084735,-0.538787,0,21.532942
2590,2117,2.710236,9.270349,-2.545036,-0.053559,-0.553176,-0.014123,21.530001
2600,2129,2.568978,9.270349,-2.540248,0.031443,-0.590747,-0.034107,21.541765
2610,2099,2.394202,9.23683,-2.442086,0.110315,-0.628851,-0.054625,21.538824
2620,1993,2.202666,9.229648,-2.224213,0.157479,-0.670686,-0.075409,21.538824
2630,1642,2.111686,9.358934,-2.047042,0.174266,-0.701063,-0.095127,21.535883
2640,2784,2.099715,9.555259,-2.051831,0.170536,-0.710655,-0.095394,21.530001
2650,4095,2.221819,9.77792,-2.202666,0.148153,-0.694401,-0.073011,21.530001
2660,4095,2.394202,10.04607,-2.260126,0.10472,-0.666423,-0.044499,21.550589
2670,1783,2.592921,10.168175,-2.427721,0.054625,-0.657896,-0.010392,21.562353
2680,1617,2.717419,10.13705,-2.449268,-0.001865,-0.691204,0.027179,21.532942
2690,2058,2.707842,9.988609,-2.408567,-0.043966,-0.753556,0.051694,21.541765
2700,2090,2.56419,9.78989,-2.427721,-0.062086,-0.828432,0.055424,21.550589
2710,2122,2.32477,9.56723,-2.418144,-0.075142,-0.906505,0.040769,21.556471
2720,2128,2.037466,9.399636,-2.430115,-0.081804,-0.972322,0.016787,21.559412
2730,1978,1.735796,9.306262,-2.391808,-0.079139,-1.016821,-0.002132,21.547647
2740,1828,1.45328,9.138668,-2.39899,-0.073277,-1.032542,-0.021051,21.547647
2750,1935,1.16837,8.904037,-2.437297,-0.077008,-1.00856,-0.03917,21.568235
2760,2064,1.060631,8.762778,-2.341529,-0.094061,-0.957666,-0.053026,21.547647
2770,2096,1.089362,8.693346,-2.269703,-0.113247,-0.907305,-0.058089,21.556471
2780,1949,1.189918,8.659827,-2.209848,-0.136429,-0.850015,-0.05649,21.568235
2790,1947,1.271321,8.633492,-2.066196,-0.15215,-0.798322,-0.049828,21.565294
2800,1873,1.429338,8.702923,-1.900996,-0.158012,-0.784732,-0.041302,21.568235
2810,1927,1.541866,8.832211,-1.747767,-0.16494,-0.806049,-0.029577,21.574118
2820,1747,1.613692,8.870518,-1.889025,-0.18226,-0.819372,-0.021051,21.565294
2830,1604,1.608904,8.911219,-1.812411,-0.221963,-0.825767,-0.018119,21.571177
2840,1430,1.649605,8.968679,-1.647211,-0.251008,-0.84815,-0.011458,21.574118
2850,1249,1.671153,9.081207,-1.553837,-0.263531,-0.908637,-0.01359,21.582941
2860,1281,1.637634,9.16261,-1.611298,-0.264331,-0.969124,-0.021583,21.559412
2870,1499,1.570596,9.246407,-1.54426,-0.260334,-1.008294,-0.027712,21.577059
2880,1728,1.532289,9.320627,-1.347936,-0.248077,-1.05306,-0.028245,21.577059
2890,1777,1.383849,9.442732,-1.321599,-0.22143,-1.125271,-0.035706,21.559412
2900,2029,1.21386,9.519346,-1.264138,-0.202511,-1.186557,-0.029311,21.571177
2910,2229,1.04866,9.583989,-1.228225,-0.188122,-1.225994,-0.022116,21.574118
2920,2207,0.92895,9.64145,-1.223437,-0.177464,-1.254239,-0.015988,21.562353
2930,2143,0.876278,9.710882,-1.249773,-0.179329,-1.269694,-0.004796,21.582941
2940,2131,0.840365,9.744401,-1.158794,-0.197715,-1.286747,0.007194,21.582941
2950,2115,0.718261,9.82341,-1.156399,-0.227825,-1.305666,0.028778,21.568235
2960,2122,0.852336,9.837775,-0.924162,-0.240083,-1.325384,0.041035,21.585882
2970,2111,0.88346,9.873688,-1.041478,-0.248343,-1.358959,0.037571,21.585882
2980,2130,0.948104,9.809045,-1.223437,-0.263798,-1.376545,0.045832,21.585882
2990,2288,0.952892,9.749189,-1.474828,-0.275256,-1.388536,0.061553,21.58
3000,2352,1.223437,9.725247,-1.460463,-0.272058,-1.416515,0.071412,21.565294
3010,2427,1.283292,9.648633,-1.412579,-0.271792,-1.495654,0.06928,21.582941
3020,2524,1.276109,9.478644,-1.489193,-0.284049,-1.580389,0.075409,21.582941
3030,2659,1.13964,9.385271,-1.58975,-0.290178,-1.660328,0.083403,21.574118
3040,2675,0.986411,9.368511,-1.637634,-0.288312,-1.734138,0.102855,21.588823
3050,2628,0.861913,9.43076,-1.66397,-0.294175,-1.801286,0.121773,21.597647
3060,2624,0.667982,9.516952,-1.683124,-0.310962,-1.839923,0.136429,21.588823
3070,2738,0.447716,9.622296,-1.723825,-0.320288,-1.848717,0.151617,21.600588
3080,2763,0.332794,9.674969,-1.690306,-0.307231,-1.849516,0.159611,21.597647
3090,2521,0.146046,9.73243,-1.771709,-0.298971,-1.841256,0.168138,21.582941
3100,2437,-0.095768,9.725247,-1.833959,-0.293109,-1.803152,0.180395,21.585882
3110,2273,-0.244209,9.682152,-1.812411,-0.278187,-1.725878,0.206242,21.585882
3120,2251,-0.258574,9.651027,-1.960851,-0.264597,-1.643008,0.231822,21.594706
3130,2272,-0.208296,9.816227,-2.173935,-0.247544,-1.554276,0.268061,21.594706
3140,2358,-0.02873,9.598354,-2.11408,-0.223029,-1.469274,0.328815,21.585882
3150,2455,0.057461,9.560047,-2.20506,-0.220364,-1.436233,0.323752,21.588823
3160,2390,0.162806,9.617508,-2.15957,-0.211838,-1.402658,0.33974,21.585882
3170,2205,0.280122,9.572019,-2.157176,-0.206508,-1.361623,0.353862,21.585882
3180,2000,0.481235,9.512163,-2.104503,-0.207308,-1.344303,0.358925,21.591764
3190,1831,0.699107,9.490616,-2.025495,-0.203844,-1.350698,0.368251,21.577059
3200,1779,0.840365,9.514558,-2.121263,-0.199847,-1.375479,0.369317,21.585882
3210,1851,0.869095,9.545682,-2.171541,-0.201712,-1.393865,0.380508,21.597647
3220,1919,0.847547,9.586384,-2.267309,-0.205709,-1.416248,0.372515,21.597647
3230,1905,0.802058,9.595961,-2.293645,-0.211838,-1.425041,0.366386,21.591764
3240,1841,0.694318,9.526528,-2.358289,-0.207841,-1.433302,0.361323,21.591764
3250,1727,0.629675,9.397242,-2.336741,-0.201179,-1.451421,0.35173,21.612352
3260,1815,0.500388,9.255983,-2.379837,-0.201179,-1.47487,0.349332,21.585882
3270,1782,0.414197,9.138668,-2.463634,-0.215302,-1.471139,0.342404,21.594706
3280,1467,0.260968,9.153033,-2.406173,-0.219032,-1.443161,0.347734,21.591764
3290,2817,0.11971,9.234436,-2.442086,-0.216101,-1.420778,0.322953,21.603529
3300,4095,-0.009577,9.351752,-2.475605,-0.208907,-1.372015,0.304833,21.615294
3310,4095,-0.023942,9.40203,-2.542642,-0.193452,-1.314459,0.284848,21.603529
3320,1998,-0.098162,9.478644,-2.470816,-0.169737,-1.262499,0.255005,21.60647
3330,1906,-0.102951,9.49301,-2.487576,-0.142025,-1.228126,0.243014,21.60647
3340,2323,-0.067038,9.5385,-2.339135,-0.133764,-1.107951,0.326949,21.615294
3350,2160,0.007183,8.971074,-2.37026,-0.103121,-1.139927,0.3051,21.612352
3360,2193,-0.21069,8.990228,-2.406173,-0.121507,-1.171902,0.249142,21.600588
3370,2229,-0.35913,9.018958,-2.566584,-0.12657,-1.113547,0.238217,21.597647
3380,2235,-0.407014,9.148245,-2.549825,-0.122839,-1.046665,0.227559,21.585882
3390,2067,-0.433351,9.320627,-2.652776,-0.097259,-1.00856,0.211571,21.58
3400,2161,-0.385466,9.366117,-2.626439,-0.069014,-0.978717,0.206775,21.585882
3410,2234,-0.363919,9.172187,-2.659958,-0.057556,-0.968325,0.215835,21.60647
3420,2221,-0.430956,8.870518,-2.765303,-0.072744,-0.965127,0.234753,21.615294
3430,2261,-0.555455,8.671799,-2.954445,-0.092196,-0.949672,0.259801,21.603529
3440,2267,-0.711078,8.645462,-3.031059,-0.101256,-0.92276,0.288312,21.621176
3450,2266,-0.802058,8.779537,-3.081338,-0.102322,-0.889185,0.311495,21.60647
3460,2255,-0.897826,8.975863,-3.136404,-0.097525,-0.827632,0.342138,21.612352
3470,2257,-0.88346,9.129091,-3.090914,-0.080472,-0.765547,0.342138,21.609411
3480,2346,-0.866701,9.227253,-3.009511,-0.060487,-0.699198,0.330413,21.621176
3490,2378,-0.818817,9.172187,-3.040636,-0.047697,-0.642175,0.318689,21.615294
3500,2317,-0.720655,9.069236,-2.978387,-0.039703,-0.595544,0.301902,21.60647
3510,2467,-0.605733,8.949526,-2.877831,-0.035173,-0.576891,0.297639,21.627058
3520,2535,-0.545878,8.722076,-2.877831,-0.063685,-0.579822,0.304567,21.615294
3530,2482,-0.457293,8.403648,-2.827552,-0.10925,-0.571562,0.314426,21.612352
3540,2515,-0.378284,8.140285,-2.722207,-0.151884,-0.545982,0.316557,21.603529
3550,2531,-0.162806,8.070854,-2.719813,-0.198248,-0.509743,0.309629,21.600588
3560,2530,0.004788,8.195353,-2.719813,-0.2606,-0.475902,0.297106,21.603529
3570,2354,0.095768,8.429984,-2.796427,-0.314692,-0.454319,0.287247,21.597647
3580,2203,0.114922,8.76996,-2.870648,-0.362655,-0.45192,0.277654,21.600588
3590,2031,0.081403,9.069236,-2.877831,-0.389568,-0.463911,0.276055,21.603529
3600,1942,-0.002394,9.339781,-2.89459,-0.3917,-0.489492,0.280319,21.618235
3610,1904,-0.011971,9.414001,-3.160346,-0.412484,-0.522533,0.292842,21.612352
3620,1821,0.217872,9.370906,-3.564966,-0.472704,-0.518003,0.290178,21.609411
3630,1759,0.577003,9.631873,-3.79481,-0.533991,-0.502815,0.274989,21.621176
3640,1637,0.984017,10.160992,-3.639187,-0.569963,-0.542251,0.241681,21.627058
3650,1535,0.993594,10.869676,-3.359065,-0.589149,-0.624322,0.177997,21.629999
3660,1431,0.574608,11.537658,-3.035848,-0.604337,-0.646172,0.103387,21.63294
3670,1616,-0.002394,12.143391,-2.60968,-0.637112,-0.567299,0.01279,21.609411
3680,1590,-0.399832,12.650962,-2.255338,-0.664557,-0.381308,-0.076475,21.618235
3690,1728,-0.407014,13.000515,-1.819593,-0.669354,-0.12204,-0.16494,21.624117
3700,1936,0.050278,13.189657,-1.37906,-0.653366,0.163342,-0.234221,21.615294
3710,1973,0.921768,13.283031,-0.938527,-0.618726,0.41275,-0.287779,21.615294
3720,1995,2.044648,13.347674,-0.47884,-0.57023,0.559038,-0.316291,21.624117
3730,2001,3.172317,13.397953,-0.07422,-0.490291,0.544916,-0.288579,21.644707
3740,1889,4.177882,13.330915,0.095768,-0.372781,0.396763,-0.214502,21.638824
3750,1873,4.948815,13.081918,0.251391,-0.229691,0.171069,-0.116711,21.635881
3760,1819,5.590461,12.540829,0.409408,-0.05196,-0.112447,-0.010126,21.641766
3770,1802,6.033388,11.595119,0.385466,0.158812,-0.448989,0.084469,21.629999
3780,1823,6.220136,10.093954,-0.093374,0.342138,-0.812977,0.152949,21.635881
3790,2042,6.124368,8.434772,-0.426168,0.435133,-1.182028,0.180129,21.609411
3800,2170,5.717354,6.754043,-0.61531,0.481231,-1.583054,0.16041,21.63294
3810,2247,4.88896,5.777209,-1.192312,0.46551,-1.955835,0.123106,21.629999
3820,2203,3.909731,5.408502,-1.434127,0.428472,-2.233755,0.088466,21.624117
3830,2036,2.753332,5.920861,-1.441309,0.363188,-2.366986,0.020251,21.644707
3840,1831,1.477222,7.036559,-1.628057,0.31789,-2.340606,-0.065283,21.644707
3850,1642,0.205901,8.243237,-1.740585,0.365054,-2.12264,-0.142025,21.641766
3860,1646,-0.818817,9.267955,-1.958457,0.450055,-1.765314,-0.198515,21.641766
3870,1696,-1.39582,10.158598,-2.080561,0.499351,-1.402658,-0.231289,21.627058
3880,1808,-1.747767,10.948685,-2.056619,0.484162,-1.063185,-0.229691,21.635881
3890,1905,-1.711854,11.707646,-2.312799,0.499884,-0.741299,-0.172135,21.650589
3900,1970,-1.37906,12.404359,-2.633622,0.577691,-0.456184,-0.138028,21.624117
3910,1977,-0.931344,12.859258,-2.772485,0.672551,-0.203044,-0.160677,21.641766
3920,1681,-0.538695,13.072341,-2.810793,0.785265,0.067948,-0.171602,21.627058
3930,2011,-0.062249,12.643779,-2.844312,0.875596,0.338407,-0.145222,21.647648
3940,4095,0.591368,11.767501,-2.932897,0.903041,0.509743,-0.110315,21.635881
3950,4095,1.122881,10.656591,-3.112462,0.854012,0.552643,-0.070879,21.650589
3960,3071,1.49877,9.586384,-2.956839,0.770343,0.534524,-0.03544,21.650589
3970,1475,1.853112,8.750807,-2.868254,0.705593,0.46098,-0.008527,21.647648
3980,2175,2.164358,8.058883,-3.026271,0.649103,0.338407,0.01359,21.650589
3990,2351,2.387019,7.465121,-3.126827,0.594478,0.163874,0.036505,21.650589
4000,2346,2.516306,7.017405,-3.172317,0.539853,-0.029577,0.059421,21.650589
4010,2258,2.542642,6.651093,-3.210624,0.482564,-0.200113,0.080472,21.641766
4020,2167,2.427721,6.469133,-3.232172,0.423942,-0.35706,0.101789,21.641766
4030,2036,2.214637,6.406884,-3.165135,0.363988,-0.503614,0.123372,21.635881
4040,1907,1.836353,6.339846,-3.124433,0.297639,-0.630717,0.143357,21.659412
4050,1856,1.273715,6.294356,-3.210624,0.2169,-0.71785,0.14389,21.647648
4060,1791,0.624887,6.320693,-3.248932,0.129234,-0.754355,0.122839,21.650589
4070,1703,0.040701,6.361394,-3.378219,0.048496,-0.725044,0.084202,21.650589
4080,1594,-0.426168,6.495469,-3.5099,-0.023715,-0.627519,0.039969,21.641766
4090,1437,-0.737414,6.631939,-3.557784,-0.066882,-0.493222,0.007727,21.63294
4100,1421,-0.914585,6.73489,-3.634398,-0.107118,-0.351997,-0.010658,21.647648
4110,1535,-0.995988,6.746861,-3.660734,-0.160677,-0.2169,-0.01359,21.638824
4120,1622,-0.957681,6.777985,-3.77805,-0.213436,-0.117243,-0.007727,21.659412
4130,1632,-0.924162,6.854599,-3.86903,-0.268861,-0.039436,0.00373,21.629999
4140,1872,-0.833182,6.92882,-3.952827,-0.320821,0.038104,0.010658,21.644707
4150,2141,-0.715866,7.034164,-4.000711,-0.36159,0.109783,0.00453,21.638824
4160,2320,-0.560243,7.177817,-3.991134,-0.380508,0.128168,-0.006662,21.638824
4170,2327,-0.361524,7.28795,-3.89776,-0.382907,0.088732,-0.028778,21.638824
4180,2433,-0.390255,7.460332,-3.8403,-0.38717,0.027179,-0.060487,21.63294
4190,2541,-0.469264,7.757214,-3.842694,-0.379176,-0.030643,-0.088998,21.647648
4200,2515,-0.536301,8.173804,-3.708618,-0.361856,-0.051694,-0.117776,21.65353
4210,2397,-0.447716,8.568848,-3.622427,-0.35253,-0.033574,-0.16041,21.659412
4220,2259,-0.287304,8.968679,-3.722984,-0.342138,-0.001865,-0.223029,21.635881
4230,2099,-0.081403,9.284714,-3.842694,-0.336276,0.060487,-0.270193,21.63294
4240,1941,0.270545,9.481039,-4.012682,-0.358392,0.157479,-0.284049,21.644707
4250,1872,0.761356,9.804255,-4.098873,-0.393832,0.24781,-0.283783,21.638824
4260,1712,1.374272,10.271125,-4.067749,-0.377577,0.24328,-0.265397,21.638824
4270,1563,1.795651,10.668563,-4.050989,-0.314959,0.096726,-0.251274,21.647648
4280,1443,1.73819,10.81461,-4.13718,-0.245945,-0.10392,-0.238217,21.63294
4290,1450,1.13964,10.637438,-4.113238,-0.199847,-0.236885,-0.224095,21.659412
4300,1453,0.304064,10.204087,-4.309563,-0.185458,-0.330147,-0.225427,21.671177
4310,1451,-0.519542,9.813833,-4.659117,-0.172668,-0.399427,-0.251807,21.638824
4320,1477,-1.223437,9.629479,-5.133168,-0.110049,-0.406622,-0.284049,21.668236
4330,1653,-1.640028,9.631873,-5.621585,0.010392,-0.328548,-0.304034,21.650589
4340,1787,-1.697489,9.921572,-6.16507,0.164674,-0.132698,-0.313626,21.665295
4350,1936,-1.209072,10.773908,-5.77242,0.370649,0.234487,-0.300836,21.668236
4360,1953,-0.430956,11.741165,-4.850653,0.638444,0.598475,-0.232355,21.671177
4370,1984,0.402226,12.349293,-4.388572,0.816707,0.829764,-0.1303,21.674118
4380,2160,1.084573,12.852075,-3.734955,0.808447,0.966992,-0.024248,21.662354
4390,2297,1.989582,13.400347,-2.801216,0.693602,0.997103,0.063951,21.656471
4400,2384,3.009511,13.725958,-2.600103,0.62592,0.919029,0.12204,21.659412
4410,2431,4.043807,13.426683,-2.964022,0.638711,0.760217,0.187323,21.656471
4420,2453,5.068525,12.184093,-3.713407,0.619525,0.467109,0.245145,21.644707
4430,2511,5.525817,10.481815,-5.238513,0.453519,0.156413,0.290711,21.638824
4440,2416,5.425261,9.380483,-5.805939,0.244879,-0.053559,0.347734,21.662354
4450,2138,5.140351,9.255983,-5.463568,0.147887,-0.203844,0.390634,21.647648
4460,1870,4.754885,9.540894,-5.159505,0.214236,-0.417014,0.364521,21.662354
4470,1596,4.1707,9.536105,-4.759673,0.357326,-0.690671,0.268861,21.671177
4480,1555,3.313575,9.291897,-4.156334,0.458315,-0.843887,0.153216,21.662354
4490,1535,2.365471,8.925584,-3.567361,0.487893,-0.850548,0.115645,21.668236
4500,1685,1.493982,8.544906,-2.810793,0.454052,-0.807115,0.173201,21.671177
4510,1725,0.76375,8.319851,-1.778892,0.415149,-0.729574,0.272058,21.665295
4520,1741,0.167594,7.991845,-1.091756,0.366652,-0.564101,0.37438,21.688824
4530,1776,-0.177171,7.606379,-0.61531,0.276588,-0.356527,0.440995,21.662354
4540,1791,-0.217872,7.256825,-0.282516,0.143623,-0.137761,0.458049,21.656471
4550,1921,0.069432,7.134721,-0.438139,0.005862,0.07381,0.43007,21.674118
4560,1686,0.703895,7.606379,-0.754174,-0.120441,0.290178,0.370649,21.674118
4570,1645,1.604115,8.746018,-0.962469,-0.172401,0.461779,0.330147,21.68
4580,4095,2.645593,9.892841,-1.472434,-0.162276,0.463112,0.281384,21.68
4590,4095,3.466804,10.520123,-1.723825,-0.126037,0.33521,0.208374,21.668236
4600,2426,3.933673,10.431537,-1.963245,-0.112447,0.144423,0.11298,21.656471
4610,815,4.151546,9.904813,-2.109292,-0.141492,-0.081804,0.033574,21.659412
4620,1483,4.314352,9.200917,-2.147599,-0.214236,-0.339207,-0.012257,21.65353
4630,1449,4.34787,8.719683,-2.152387,-0.326417,-0.617926,-0.051694,21.65353
4640,1425,4.321534,8.580819,-2.092532,-0.464178,-0.875329,-0.055158,21.68
4650,1638,4.237737,8.702923,-2.054225,-0.579822,-1.145789,-0.023982,21.68
4660,1738,3.955221,9.018958,-2.020706,-0.643773,-1.448757,0.037038,21.688824
4670,1819,3.586514,9.246407,-2.073379,-0.66136,-1.743464,0.128168,21.665295
4680,1897,3.157952,9.339781,-1.934515,-0.681078,-2.01792,0.225161,21.665295
4690,2175,2.626439,9.267955,-1.764527,-0.71785,-2.240683,0.322686,21.668236
4700,2379,1.958457,9.172187,-1.584962,-0.762349,-2.377112,0.422343,21.685883
4710,2535,1.244985,9.083601,-1.434127,-0.796456,-2.436799,0.505213,21.668236
4720,2719,0.445322,9.081207,-1.482011,-0.814576,-2.411752,0.561436,21.677059
4730,2781,-0.371101,9.054871,-1.326388,-0.80072,-2.261201,0.593945,21.68
4740,2768,-0.92895,8.935161,-1.448492,-0.76075,-2.053093,0.576092,21.674118
4750,2811,-1.197101,8.798691,-1.541866,-0.692536,-1.812478,0.543583,21.674118
4760,2941,-1.254562,8.640674,-1.721431,-0.637112,-1.563602,0.522799,21.674118
4770,2915,-1.13964,8.42759,-1.960851,-0.60407,-1.320322,0.53932,21.685883
4780,2852,-0.723049,8.271967,-2.106898,-0.571562,-1.116211,0.579289,21.668236
4790,2978,-0.050278,8.149862,-2.255338,-0.548913,-1.009893,0.622456,21.665295
4800,2895,0.536301,8.078036,-2.475605,-0.539853,-0.983513,0.649369,21.662354
4810,2829,0.852336,8.238448,-2.746149,-0.543051,-0.999767,0.658429,21.668236
4820,2873,0.969652,8.576031,-2.710236,-0.535856,-1.043201,0.650168,21.68
4830,2975,0.919373,8.916007,-2.777274,-0.505479,-1.097825,0.628851,21.671177
4840,3039,0.723049,9.112331,-2.715025,-0.47004,-1.124472,0.603271,21.674118
4850,2903,0.462081,9.193734,-2.624045,-0.43993,-1.165507,0.566766,21.677059
4860,2733,0.057461,9.193734,-2.621651,-0.409553,-1.201746,0.526796,21.677059
4870,2518,-0.263362,9.093178,-2.726996,-0.370116,-1.20974,0.503881,21.688824
4880,2256,-0.466869,9.054871,-2.86586,-0.318689,-1.157247,0.480698,21.685883
4890,2027,-0.670376,9.241618,-3.131616,-0.281651,-1.082637,0.457516,21.671177
4900,1930,-0.725443,9.258378,-3.055001,-0.237685,-0.977384,0.483896,21.694706
4910,1693,-0.830788,9.476251,-3.189077,-0.214502,-0.964328,0.384239,21.694706
4920,1591,-0.842759,9.481039,-3.186682,-0.162009,-0.885721,0.350931,21.691765
4930,1465,-0.684742,8.973468,-3.423708,-0.138028,-0.817773,0.358392,21.674118
4940,1346,-0.430956,8.329428,-3.289633,-0.160144,-0.806848,0.384239,21.677059
4950,1347,-0.292093,7.807492,-3.306392,-0.203044,-0.836426,0.410885,21.691765
4960,1373,-0.37589,7.620744,-3.062184,-0.257136,-0.870266,0.425008,21.691765
4970,1357,-0.646434,7.680599,-2.712631,-0.315758,-0.897179,0.411418,21.694706
4980,1328,-1.055843,7.924808,-2.688689,-0.366652,-0.852413,0.371982,21.677059
4990,1227,-1.256956,8.300697,-2.794033,-0.406089,-0.723979,0.293642,21.688824
5000,1279,-1.086968,8.710106,-2.954445,-0.432735,-0.573161,0.186524,21.688824
5010,1239,-0.529119,9.038112,-3.04303,-0.44739,-0.443926,0.095394,21.691765
5020,1190,0.162806,9.234436,-3.102885,-0.480965,-0.395697,0.046364,21.68
5030,1258,0.902614,9.272743,-2.887407,-0.526263,-0.46098,0.031176,21.674118
5040,1337,1.189918,9.267955,-2.928109,-0.567032,-0.618193,0.028778,21.656471
5050,1358,1.142034,9.150639,-2.92332,-0.599541,-0.776472,0.049828,21.685883
5060,1407,0.988805,9.126697,-2.971204,-0.636312,-0.906239,0.075142,21.68
5070,1487,0.821211,9.344569,-3.002329,-0.662426,-1.01389,0.106319,21.674118
5080,1595,0.737414,9.73243,-2.794033,-0.67868,-1.119409,0.144689,21.668236
5090,1611,0.797269,10.134656,-2.403779,-0.701862,-1.275289,0.18759,21.677059
5100,1650,1.067814,10.400413,-2.920926,-0.76075,-1.371749,0.204643,21.682941
5110,1610,1.584962,10.805033,-3.414132,-0.776205,-1.345103,0.16947,21.682941
5120,1510,2.348712,11.35091,-3.462016,-0.761283,-1.332579,0.118842,21.68
5130,1342,3.193865,11.769896,-3.126827,-0.729041,-1.391467,0.084735,21.703529
5140,1271,3.744531,11.858481,-2.53546,-0.695734,-1.46581,0.046897,21.691765
5150,1263,3.993528,11.822568,-1.750161,-0.69147,-1.541752,0.025314,21.691765
5160,1453,4.003105,11.901577,-0.634463,-0.735703,-1.60517,-0.003198,21.691765
5170,1494,3.660734,12.200851,0.395043,-0.822303,-1.627553,-0.061819,21.691765
5180,1369,3.098097,12.653356,1.223437,-0.86174,-1.579057,-0.119642,21.691765
5190,1200,2.662352,13.034034,1.484405,-0.792459,-1.538821,-0.198781,21.712353
5200,990,2.396596,13.192051,1.450886,-0.64404,-1.375746,-0.33441,21.688824
5210,621,2.30801,13.153744,1.565808,-0.327482,-1.071179,-0.444992,21.715294
5220,309,2.817975,12.72997,1.244985,0.172401,-0.789528,-0.457783,21.709412
5230,130,3.79481,11.492168,0.272939,0.704527,-0.654165,-0.401559,21.715294
5240,334,4.661511,9.964667,-1.436521,0.875063,-0.75249,-0.392499,21.718235
5250,2850,5.365406,9.296685,-1.405396,0.739433,-1.127936,-0.401293,21.70647
5260,4095,5.633556,9.902418,-1.606509,0.581421,-1.660328,-0.415681,21.700588
5270,3376,4.946421,10.888829,-1.867477,0.518003,-2.030444,-0.385038,21.70647
5280,896,3.790021,11.552023,-2.030283,0.546515,-2.211106,-0.282184,21.694706
5290,1490,2.183512,11.695675,-2.1883,0.532925,-2.215103,-0.175599,21.70647
5300,1572,0.35913,11.465832,-2.389413,0.471639,-2.097593,-0.078074,21.691765
5310,1712,-1.264138,11.408371,-2.442086,0.45272,-1.868435,0.015455,21.685883
5320,1706,-2.367866,11.774684,-2.229002,0.517204,-1.564135,0.102055,21.700588
5330,1510,-2.817975,11.975797,-2.166753,0.607002,-1.248643,0.151084,21.703529
5340,1393,-2.794033,11.750742,-2.073379,0.715452,-0.86094,0.150818,21.697647
5350,1351,-2.329558,11.324574,-2.080561,0.854812,-0.405822,0.127369,21.700588
5360,1206,-1.431733,10.630256,-2.020706,0.992573,-0.019452,0.090064,21.697647
5370,1083,-0.591368,9.5385,-1.92015,1.092496,0.177997,0.041568,21.709412
5380,1177,0.100556,8.188169,-1.94888,1.132199,0.240349,-0.007994,21.727058
5390,1509,0.794875,7.132327,-1.991976,1.112214,0.221697,-0.049828,21.703529
5400,1414,1.42455,6.428432,-2.154782,1.034407,0.113779,-0.070346,21.703529
5410,1452,1.831564,5.961562,-2.497152,0.915832,-0.088199,-0.081271,21.697647
5420,1648,1.917756,5.829881,-2.832341,0.804184,-0.336809,-0.069547,21.703529
5430,1513,1.714248,5.935226,-2.930503,0.699997,-0.564368,-0.033574,21.709412
5440,1363,1.271321,6.062119,-2.947262,0.588349,-0.714119,0.020518,21.703529
5450,1429,0.751779,6.167464,-2.906561,0.486827,-0.7834,0.081271,21.712353
5460,1426,0.179565,6.210559,-2.952051,0.399427,-0.813244,0.135896,21.709412
5470,1430,-0.373495,6.275203,-3.078943,0.326417,-0.817507,0.174266,21.715294
5480,1483,-1.000776,6.38773,-3.1795,0.269394,-0.790061,0.169737,21.700588
5490,1603,-1.513135,6.605602,-3.409343,0.20864,-0.705593,0.153216,21.700588
5500,1630,-1.853112,6.658275,-3.591303,0.165473,-0.550245,0.152417,21.703529
5510,1647,-1.924938,6.591237,-3.744531,0.12124,-0.358392,0.155614,21.718235
5520,1671,-1.798046,6.449979,-3.835511,0.047164,-0.174,0.16121,21.721176
5530,1535,-1.429338,6.26802,-4.010288,-0.050361,-0.049828,0.172668,21.718235
5540,1444,-1.010353,6.14831,-4.1707,-0.168138,-0.017587,0.178263,21.691765
5550,1378,-0.754174,6.095637,-4.31914,-0.286714,-0.054092,0.174533,21.691765
5560,1434,-0.723049,6.14831,-4.383783,-0.381041,-0.116977,0.153749,21.703529
5570,1517,-0.723049,6.356606,-4.34787,-0.41728,-0.230224,0.107384,21.709412
5580,1555,-0.778116,6.739678,-4.496311,-0.372248,-0.405289,0.016787,21.715294
5590,1708,-1.175553,7.117962,-4.474763,-0.274456,-0.436199,-0.077008,21.715294
5600,1748,-1.369483,7.412448,-4.36463,-0.190521,-0.291243,-0.157213,21.724117
5610,1756,-1.072602,7.694964,-4.422091,-0.201179,-0.183593,-0.2169,21.703529
5620,1881,-0.543484,8.159439,-4.417302,-0.259801,-0.137761,-0.280851,21.703529
5630,1951,0.026336,8.60955,-4.362236,-0.355994,0.003464,-0.318156,21.727058
5640,2064,0.768539,9.315839,-4.680665,-0.492689,0.246744,-0.280585,21.709412
5650,2093,1.860295,10.632649,-4.651934,-0.530527,0.491357,-0.143357,21.721176
5660,1965,2.77488,12.322956,-3.854665,-0.40076,0.63498,0.032775,21.709412
5670,1867,3.107674,13.553576,-3.409343,-0.185191,0.535057,0.20864,21.718235
5680,1557,2.616863,13.668497,-4.070143,0.003198,0.212371,0.362123,21.712353
5690,1361,1.486799,12.672509,-5.114015,0.113779,-0.146021,0.460447,21.732941
5700,1203,0.234632,11.087548,-5.805939,0.125504,-0.373047,0.452986,21.738823
5710,1311,-0.806846,9.718064,-5.901707,0.135363,-0.47004,0.354928,21.738823
5720,1511,-1.527501,8.463503,-5.932832,0.185991,-0.461247,0.260067,21.721176
5730,1734,-1.745373,7.249643,-6.318298,0.168671,-0.368251,0.180395,21.721176
5740,1813,-1.563414,7.37893,-5.901707,0.13856,-0.162809,0.057289,21.718235
5750,1934,-1.194707,9.066842,-5.003881,0.293908,0.127103,-0.081538,21.715294
5760,1922,-0.725443,11.152191,-4.278439,0.555841,0.368518,-0.174533,21.73
5770,1777,-0.311246,12.98615,-3.780444,0.703727,0.613663,-0.203844,21.712353
5780,1802,0.126893,14.709975,-3.754108,0.659761,0.79539,-0.16041,21.712353
5790,1820,1.276109,15.911864,-3.742137,0.576092,0.897979,-0.07008,21.70647
5800,1871,3.342306,15.840038,-3.074155,0.557972,0.960864,-0.004263,21.712353
5810,1985,5.329493,14.535198,-2.724602,0.579556,0.950738,0.057023,21.709412
5820,2127,6.402095,12.191275,-3.785233,0.595544,0.682677,0.225694,21.718235
5830,2202,6.22253,9.279925,-4.752491,0.389302,0.175599,0.423142,21.73
5840,1855,5.403713,8.06846,-3.854665,0.100456,-0.307764,0.548913,21.724117
5850,1431,4.462792,8.35337,-3.450045,0.036772,-0.576625,0.568897,21.718235
5860,1535,3.318364,8.717288,-3.620033,0.133498,-0.701063,0.532392,21.709412
5870,1747,2.260126,9.01417,-2.964022,0.257136,-0.818839,0.487626,21.73
5880,2037,1.096544,9.313444,-1.908179,0.454585,-0.871599,0.440729,21.73
5890,2257,-0.031125,8.983045,-1.508347,0.605936,-0.755688,0.43007,21.732941
5900,2454,-0.617704,8.341399,-1.09415,0.647504,-0.489492,0.458315,21.73
5910,2544,-0.538695,7.651869,-1.010353,0.59208,-0.180928,0.481231,21.727058
5920,2640,-0.038307,6.98628,-0.916979,0.436998,0.083136,0.473237,21.718235
5930,2549,0.694318,6.476315,-0.859518,0.20411,0.277387,0.418613,21.724117
5940,2074,1.412579,6.421249,-1.022324,-0.071145,0.41275,0.335743,21.715294
5950,1361,2.102109,7.350199,-1.63524,-0.294708,0.499084,0.240882,21.73
5960,2639,3.062184,9.263166,-2.312799,-0.420478,0.515871,0.211838,21.727058
5970,4095,4.13718,11.310209,-2.650381,-0.418346,0.341338,0.210239,21.735882
5980,4095,4.838682,12.23437,-2.58095,-0.315492,-0.024781,0.176931,21.735882
5990,1408,4.661511,11.623849,-2.621651,-0.268861,-0.395164,0.115112,21.727058
6000,1680,4.149151,10.151415,-2.545036,-0.321087,-0.682144,0.046364,21.732941
6010,1950,3.677494,8.892065,-2.446874,-0.420478,-0.936083,-0.029044,21.721176
6020,1950,3.227384,8.307879,-2.406173,-0.514006,-1.190021,-0.059688,21.732941
6030,2591,2.75812,8.2169,-2.41575,-0.599807,-1.418646,-0.040502,21.73
6040,3200,2.236184,8.535329,-2.413355,-0.658162,-1.593446,0.022383,21.732941
6050,3890,1.685518,8.726865,-2.339135,-0.659761,-1.704294,0.139093,21.73
6060,4095,1.161188,8.657434,-2.173935,-0.657629,-1.756254,0.292576,21.715294
6070,4095,0.70629,8.42759,-2.116474,-0.70053,-1.729342,0.447657,21.738823
6080,4095,0.311246,8.334216,-2.011129,-0.749559,-1.600906,0.557972,21.715294
6090,4095,0.098162,8.367735,-2.042254,-0.758619,-1.432769,0.618726,21.718235
6100,4095,0.114922,8.437167,-2.094927,-0.737568,-1.250242,0.626453,21.721176
6110,3687,0.081403,8.429984,-2.226608,-0.697332,-1.06132,0.600873,21.73
6120,3583,0.107739,8.271967,-2.303222,-0.653366,-0.867069,0.567299,21.727058
6130,3632,0.234632,8.00621,-2.219425,-0.593412,-0.75249,0.544916,21.727058
6140,3466,0.526724,7.675811,-2.32477,-0.549446,-0.688539,0.547847,21.721176
6150,3330,0.907402,7.402872,-2.284068,-0.531859,-0.670153,0.575026,21.721176
6160,3153,1.04866,7.338228,-2.396596,-0.550511,-0.698931,0.584352,21.721176
6170,3010,0.861913,7.536947,-2.432509,-0.550778,-0.764747,0.590747,21.724117
6180,2880,0.445322,7.728483,-2.719813,-0.536922,-0.800453,0.602472,21.735882
6190,2773,-0.002394,7.94875,-2.887407,-0.528928,-0.723179,0.601672,21.738823
6200,2453,-0.287304,8.350976,-3.004723,-0.500683,-0.644839,0.582487,21.738823
6210,2387,-0.567426,8.724471,-3.10528,-0.461779,-0.576358,0.568098,21.738823
6220,2227,-0.792481,9.078813,-3.184288,-0.388769,-0.506279,0.539853,21.732941
6230,2142,-0.907402,9.473856,-3.473987,-0.295507,-0.437798,0.490557,21.741764
6240,2131,-0.924162,9.651027,-3.421314,-0.210505,-0.3909,0.470573,21.744705
6250,1979,-0.902614,9.545682,-3.442862,-0.15215,-0.420478,0.443926,21.73
6260,1636,-0.926556,9.212888,-3.421314,-0.102855,-0.466309,0.421277,21.741764
6270,1394,-0.993594,8.836999,-3.423708,-0.072478,-0.504413,0.421011,21.738823
6280,1157,-1.01993,8.372523,-3.25372,-0.081538,-0.520668,0.433268,21.715294
6290,974,-1.09415,7.94875,-3.1795,-0.127636,-0.494021,0.425541,21.727058
6300,689,-1.113304,7.64708,-3.196259,-0.201979,-0.386371,0.41275,21.735882
6310,407,-0.893037,7.448361,-3.292027,-0.278986,-0.203844,0.393032,21.727058
6320,69,-0.4956,7.52737,-3.294421,-0.358925,-0.021583,0.381574,21.721176
6330,0,0.114922,7.900866,-2.856283,-0.417547,0.083936,0.364521,21.727058
6340,0,0.577003,8.451532,-2.434903,-0.479366,0.107384,0.341605,21.738823
6350,0,0.732626,8.856153,-2.126051,-0.539853,0.09566,0.311228,21.738823
6360,0,0.749385,8.985439,-2.047042,-0.589948,0.09113,0.270459,21.741764
6370,0,0.80924,8.942344,-2.181118,-0.640043,0.103654,0.202245,21.738823
6380,223,1.017536,8.889671,-2.190695,-0.684276,0.111914,0.116178,21.735882
6390,443,1.266533,8.963891,-2.140416,-0.725044,0.062885,0.041302,21.735882
6400,650,1.486799,9.148245,-2.049437,-0.780202,-0.097259,-0.009859,21.73
6410,969,1.678335,9.363723,-2.03986,-0.856943,-0.335476,-0.042368,21.738823
6420,1270,1.956063,9.627085,-2.652776,-0.952337,-0.495887,-0.084469,21.732941
6430,1438,2.375048,10.280702,-2.889802,-1.001899,-0.674417,-0.128435,21.744705
6440,1478,2.710236,11.101913,-2.554613,-1.014423,-0.928888,-0.153482,21.741764
6450,1514,2.612074,11.884817,-2.288857,-1.026414,-1.138328,-0.212904,21.738823
6460,1570,1.932121,12.765883,-2.176329,-1.010159,-1.194551,-0.313893,21.741764
6470,1518,1.053449,13.769054,-2.149993,-0.94834,-1.106619,-0.400227,21.73
6480,1410,0.493206,14.561535,-2.003947,-0.844953,-0.910769,-0.449256,21.741764
6490,1424,0.342371,15.059528,-1.491588,-0.716784,-0.664557,-0.470573,21.741764
6500,1419,0.744597,15.069105,-0.727837,-0.560104,-0.417014,-0.472704,21.744705
6510,1396,1.343147,14.535198,0.043096,-0.372248,-0.13856,-0.45725,21.747646
6520,1362,2.106898,13.64695,0.464475,-0.114046,0.111115,-0.428205,21.750587
6530,1344,2.870648,12.459426,0.373495,0.129234,0.272591,-0.38264,21.75647
6540,1535,3.801992,10.87207,0.246603,0.301103,0.399161,-0.360524,21.759411
6550,1375,4.704607,9.490616,-0.088585,0.461779,0.485761,-0.38264,21.759411
6560,1319,5.468357,8.573636,-0.244209,0.545715,0.44819,-0.405556,21.747646
6570,1393,5.846641,8.219295,-0.311246,0.561703,0.177997,-0.420744,21.750587
6580,1529,5.851429,8.444349,-0.718261,0.527329,-0.224894,-0.446858,21.759411
6590,1712,5.403713,9.354146,-1.199495,0.489758,-0.586484,-0.455651,21.744705
6600,1776,4.829105,10.457873,-1.764527,0.501749,-0.874796,-0.423675,21.747646
6610,1851,4.036624,11.461043,-2.078167,0.54758,-1.067715,-0.40449,21.750587
6620,1919,3.107674,11.990162,-2.073379,0.615262,-1.131666,-0.339207,21.75647
6630,1793,2.288857,11.839328,-2.552219,0.597409,-1.116744,-0.23955,21.759411
6640,1714,1.697489,11.81778,-2.798822,0.532126,-1.109283,-0.156413,21.747646
6650,1693,1.209072,12.08593,-2.145205,0.546515,-1.136462,-0.089798,21.747646
6660,1493,0.517148,12.145785,-2.066196,0.658695,-1.154848,-0.033841,21.744705
6670,1202,-0.217872,11.616667,-2.224213,0.734104,-1.021884,0.000533,21.75647
6680,1869,-0.739808,10.910378,-2.243367,0.793259,-0.72691,0.017054,21.747646
6690,4095,-0.814029,10.115502,-2.30801,0.849749,-0.395697,0.024248,21.747646
6700,4095,-0.725443,9.313444,-2.305616,0.898778,-0.180395,0.007461,21.75647
6710,2015,-0.617704,8.444349,-2.403779,0.9129,-0.045032,-0.006928,21.75647
6720,1273,-0.459687,7.723695,-2.506729,0.894781,0.069813,-0.025847,21.768236
6730,1856,-0.296881,7.206547,-2.671929,0.878527,0.130833,-0.066882,21.741764
6740,1882,-0.086191,6.825869,-2.99754,0.856677,0.151351,-0.104187,21.765295
6750,1873,0.141258,6.543353,-3.10528,0.812178,0.171335,-0.12657,21.759411
6760,1727,0.349553,6.402095,-3.150769,0.761017,0.166806,-0.134564,21.750587
6770,1734,0.521936,6.308722,-3.165135,0.707191,0.122306,-0.126836,21.765295
6780,1783,0.574608,6.10282,-3.251326,0.653366,0.053292,-0.119908,21.747646
6790,1671,0.445322,5.973533,-3.387795,0.58755,-0.001332,-0.108717,21.765295
6800,1368,0.308852,5.849035,-3.349488,0.511874,-0.017853,-0.077008,21.744705
6810,1394,0.095768,5.710171,-3.366248,0.388769,-0.002132,-0.063685,21.741764
6820,1572,-0.158017,5.671864,-3.529053,0.243813,0.028511,-0.06102,21.762352
6830,1684,-0.385466,5.77242,-3.531447,0.14389,0.072744,-0.050361,21.774118
6840,1838,-0.574608,5.882554,-3.536236,0.071145,0.128701,-0.050095,21.75647
6850,1969,-0.679953,5.89213,-3.557784,-0.017853,0.193718,-0.034907,21.765295
6860,2150,-0.6608,5.820304,-3.689465,-0.128435,0.217167,0.00373,21.759411
6870,2320,-0.679953,5.877765,-3.761291,-0.244346,0.153482,0.047164,21.747646
6880,2626,-0.842759,6.083666,-3.955221,-0.339207,0.016254,0.069813,21.747646
6890,2758,-1.182736,6.382942,-4.182671,-0.379443,-0.128968,0.057289,21.753529
6900,2833,-1.575385,6.713342,-4.311957,-0.350665,-0.174533,0.006395,21.741764
6910,2939,-1.831564,6.98628,-4.352659,-0.280585,-0.055158,-0.079939,21.759411
6920,2965,-1.850718,7.058106,-4.259285,-0.20864,0.189455,-0.174799,21.759411
6930,2898,-1.594538,7.223307,-4.474763,-0.176665,0.407688,-0.261933,21.75647
6940,2851,-0.972046,7.486669,-5.08289,-0.199314,0.550511,-0.289378,21.765295
6950,2793,-0.198719,7.951144,-5.020641,-0.283783,0.712521,-0.329348,21.753529
6960,2785,0.617704,8.798691,-4.67827,-0.363188,1.004297,-0.336009,21.765295
6970,2661,1.833959,10.031705,-3.931279,-0.407688,1.419179,-0.293109,21.77706
6980,2371,3.466804,11.824963,-3.126827,-0.28698,1.515638,-0.131366,21.782942
6990,1878,4.611232,13.227964,-4.103662,-0.010126,1.067982,0.118043,21.791765
7000,1250,4.259285,13.747506,-4.977545,0.135896,0.502815,0.314426,21.780001
7010,1089,2.877831,13.53921,-5.372589,0.163608,0.092729,0.41808,21.768236
7020,1186,1.340753,12.899959,-5.724536,0.24408,-0.197715,0.441262,21.77706
7030,1473,0.117316,11.892,-5.81791,0.446058,-0.33894,0.369051,21.782942
7040,1535,-0.751779,10.838552,-5.420473,0.746095,-0.358658,0.204643,21.774118
7050,1505,-1.039083,10.259154,-4.93445,1.022683,-0.205709,-0.023182,21.759411
7060,1631,-0.433351,10.714052,-3.603274,1.168704,0.195317,-0.243014,21.750587
7070,1739,1.18513,12.270284,-1.735796,1.16604,0.70959,-0.378643,21.762352
7080,1711,3.08852,14.856022,-1.778892,1.082104,0.956334,-0.386371,21.762352
7090,1769,4.486734,16.847998,-4.496311,0.785265,0.851614,-0.273124,21.759411
7100,1893,4.807557,17.262194,-5.83467,0.303234,0.806848,-0.133498,21.771177
7110,2096,4.292804,15.296555,-5.477933,0.160144,0.642708,0.096726,21.762352
7120,2166,3.497929,11.314998,-5.583278,0.262732,0.239283,0.35253,21.762352
7130,2192,2.379837,8.226477,-4.343082,0.289378,-0.177464,0.451121,21.774118
7140,2130,0.826,6.849811,-3.287239,0.227559,-0.38717,0.429804,21.771177
7150,2029,-0.122104,6.737284,-2.094927,0.263531,-0.384772,0.328015,21.785883
7160,1854,-0.907402,7.280767,-1.393425,0.422343,-0.20491,0.171069,21.780001
7170,1782,-1.359907,7.805098,-1.067814,0.528395,-0.025847,0.053559,21.77706
7180,1874,-1.656788,8.202535,-0.746991,0.4791,0.262998,0.028778,21.774118
7190,1935,-1.685518,8.379706,-0.739808,0.274723,0.68321,0.079939,21.774118
7200,1991,-1.118092,8.686164,-0.873884,0.029044,1.177231,0.152417,21.780001
7210,1930,0.129287,9.174581,-0.847547,-0.130034,1.566533,0.194251,21.765295
7220,1874,1.522712,9.461885,-0.938527,-0.233954,1.791161,0.20491,21.768236
7230,1984,2.8491,9.540894,-1.458069,-0.336542,1.82287,0.181194,21.762352
7240,2124,4.460398,9.734824,-1.924938,-0.388236,1.600107,0.133498,21.753529
7250,2231,5.722142,10.096349,-1.977611,-0.347201,1.085568,0.086334,21.768236
7260,2277,6.117185,10.038888,-2.109292,-0.289911,0.461247,0.062352,21.765295
7270,2304,5.865794,9.610326,-2.102109,-0.293642,-0.059421,0.050361,21.77706
7280,2153,5.372589,9.093178,-2.008735,-0.335743,-0.490291,0.041035,21.77706
7290,2110,4.76925,8.573636,-1.889025,-0.413283,-0.862006,0.052493,21.762352
7300,2096,3.952827,8.116343,-1.771709,-0.538254,-1.133798,0.0866,21.765295
7310,2417,3.10528,7.927202,-1.690306,-0.658429,-1.331513,0.132698,21.780001
7320,2720,2.425326,7.94875,-1.675941,-0.720781,-1.502315,0.191054,21.771177
7330,2943,1.771709,7.874529,-1.584962,-0.744763,-1.6526,0.279253,21.762352
7340,3899,1.012747,7.673417,-1.683124,-0.770077,-1.701629,0.388502,21.771177
7350,4095,0.186748,7.589619,-1.824382,-0.824435,-1.571862,0.505479,21.759411
7360,4095,-0.378284,7.668628,-1.867477,-0.856144,-1.349899,0.601406,21.774118
7370,4095,-0.497994,7.922413,-1.999158,-0.845752,-1.114613,0.591813,21.762352
7380,4095,-0.715866,8.149862,-1.843535,-0.779669,-0.894515,0.536123,21.774118
7390,4095,-0.737414,8.039729,-1.982399,-0.684009,-0.680545,0.495887,21.774118
7400,4095,-0.610521,7.704541,-2.025495,-0.6094,-0.488159,0.474303,21.771177
7410,4095,-0.371101,7.309498,-1.989582,-0.560637,-0.36079,0.475103,21.765295
7420,4095,-0.081403,6.962338,-2.049437,-0.525464,-0.266196,0.490025,21.771177
7430,4095,0.229843,6.888118,-2.092532,-0.522799,-0.209173,0.497219,21.765295
7440,2608,0.447716,7.10599,-2.126051,-0.526796,-0.21317,0.497752,21.765295
7450,2192,0.414197,7.429208,-2.224213,-0.499884,-0.213703,0.49642,21.759411
7460,1919,0.215478,7.802703,-2.497152,-0.453786,-0.230224,0.4791,21.771177
7470,1716,-0.016759,8.09719,-2.485181,-0.397296,-0.214502,0.485761,21.771177
7480,1649,-0.201113,8.317456,-2.846706,-0.350665,-0.18306,0.483096,21.780001
7490,1669,-0.225055,8.746018,-2.896984,-0.316025,-0.150018,0.462845,21.791765
7500,1742,-0.272939,9.275137,-3.033453,-0.231556,-0.182793,0.429005,21.788824
7510,1840,-0.251391,9.507375,-2.96881,-0.155348,-0.219299,0.403691,21.765295
7520,2047,-0.220267,9.495404,-2.789245,-0.066882,-0.250208,0.378377,21.774118
7530,1965,-0.169988,9.02614,-2.588132,0.001599,-0.288046,0.379176,21.785883
7540,2083,-0.126893,8.092402,-2.501941,-0.02638,-0.29977,0.388236,21.788824
7550,2218,-0.208296,7.201759,-2.604892,-0.140159,-0.269926,0.400227,21.774118
7560,2256,-0.232238,6.907272,-2.794033,-0.288845,-0.218499,0.402891,21.782942
7570,2166,-0.299275,7.237672,-2.794033,-0.398628,-0.124438,0.380508,21.774118
7580,1937,-0.35913,7.881712,-2.734178,-0.466309,0.023982,0.33894,21.785883
7590,1614,-0.3304,8.47308,-2.631228,-0.502282,0.177997,0.284049,21.780001
7600,1214,-0.062249,8.985439,-2.542642,-0.528662,0.352796,0.205709,21.762352
7610,911,0.229843,9.208099,-2.545036,-0.563035,0.454319,0.132432,21.768236
7620,851,0.591368,9.425972,-2.559402,-0.608867,0.534257,0.045299,21.77706
7630,894,1.086968,9.78989,-2.695871,-0.62592,0.534257,-0.016787,21.774118
7640,1101,1.584962,10.134656,-2.731784,-0.637112,0.418346,-0.045832,21.782942
7650,1249,2.121263,10.536881,-2.645593,-0.666423,0.169737,-0.051427,21.782942
7660,1491,2.889802,10.970232,-3.124433,-0.747161,-0.066616,-0.066349,21.75647
7670,1617,3.641581,11.777079,-3.071761,-0.823369,-0.269394,-0.087666,21.785883
7680,1415,4.288015,12.682086,-2.628834,-0.842288,-0.570763,-0.10392,21.782942
7690,1079,4.259285,13.524845,-2.008735,-0.830564,-0.870266,-0.176398,21.768236
7700,725,3.466804,14.144943,-1.398214,-0.82177,-1.037072,-0.289911,21.785883
7710,499,2.116474,14.681245,-0.687136,-0.855078,-1.044533,-0.428205,21.782942
7720,451,0.804452,15.179238,-0.191536,-0.884655,-0.857476,-0.543317,21.780001
7730,533,0.141258,15.507244,0.260968,-0.833495,-0.480965,-0.620858,21.785883
7740,612,0.208296,15.581465,1.04866,-0.621657,-0.081538,-0.657363,21.774118
7750,571,0.924162,15.136143,1.613692,-0.328548,0.266462,-0.6523,21.785883
7760,588,1.714248,14.161703,1.489193,0.0429,0.58302,-0.629384,21.782942
7770,689,2.782062,12.605472,0.94571,0.477234,0.911835,-0.55664,21.774118
7780,894,4.338294,10.78109,0.155623,0.86094,1.140726,-0.491357,21.77706
7790,1079,6.22253,8.947132,-0.828394,0.947541,1.025348,-0.466576,21.780001
7800,1327,7.603985,8.049306,-0.505177,0.819106,0.429538,-0.392499,21.785883
7810,1786,8.12592,8.288726,-0.497994,0.674683,-0.427939,-0.34347,21.785883
7820,2323,7.182605,9.390059,-1.012747,0.556907,-1.20894,-0.307231,21.77706
7830,2346,5.509058,10.309433,-1.520318,0.495887,-1.689905,-0.239816,21.788824
7840,2247,3.541024,10.551247,-1.750161,0.455118,-1.882557,-0.162009,21.77706
7850,2151,1.644817,10.484209,-2.226608,0.351997,-1.858043,-0.106052,21.782942
7860,1869,-0.002394,10.615891,-2.561796,0.250475,-1.636346,-0.088732,21.788824
7870,1351,-1.261744,11.099519,-2.806004,0.251541,-1.274757,-0.080205,21.785883
7880,1083,-1.821988,11.48738,-2.889802,0.370916,-0.911302,-0.079406,21.77706
7890,880,-2.011129,11.580753,-2.839523,0.522533,-0.559838,-0.10392,21.780001
7900,713,-2.025495,11.075577,-2.8491,0.672285,-0.172934,-0.144689,21.780001
7910,470,-1.862689,10.172963,-2.846706,0.782334,0.238484,-0.195583,21.782942
7920,375,-1.532289,9.160215,-2.698265,0.850815,0.589149,-0.24781,21.791765
7930,576,-1.041478,8.137892,-2.597709,0.912634,0.828965,-0.262466,21.780001
7940,815,-0.538695,7.151481,-2.698265,0.936616,0.966726,-0.267528,21.782942
7950,1207,0.004788,6.560112,-2.717419,0.908371,1.024815,-0.293109,21.794706
7960,1567,0.509965,6.272809,-2.767697,0.871865,1.038404,-0.322686,21.794706
7970,1815,1.007959,6.205771,-2.817975,0.83083,1.010159,-0.359991,21.791765
7980,1866,1.381454,6.299145,-2.815581,0.790328,0.94008,-0.389302,21.780001
7990,1957,1.625663,6.416461,-2.813187,0.727176,0.839623,-0.380775,21.800589
8000,1810,1.790863,6.449979,-2.75812,0.646704,0.701329,-0.336009,21.806471
8010,1611,1.75495,6.394913,-2.741361,0.544916,0.550778,-0.276588,21.809412
8020,1515,1.460463,6.279991,-2.789245,0.426074,0.430337,-0.23049,21.794706
8030,1634,1.108515,6.212954,-2.86586,0.309629,0.356527,-0.185458,21.791765
8040,1936,0.723049,6.083666,-2.971204,0.198248,0.300037,-0.154282,21.80353
8050,2307,0.325611,6.040571,-3.047819,0.086067,0.263531,-0.144156,21.812353
8060,2368,0.040701,6.095637,-3.081338,-0.006395,0.256603,-0.154282,21.791765
8070,2537,-0.172383,6.330269,-3.107674,-0.064217,0.274456,-0.17773,21.806471
8080,2469,-0.289698,6.533776,-3.241749,-0.085534,0.298971,-0.187057,21.815294
8090,2290,-0.435745,6.634333,-3.356671,-0.099923,0.304567,-0.174799,21.815294
8100,1840,-0.794875,6.677429,-3.246537,-0.138294,0.271259,-0.15668,21.809412
8110,1744,-1.266533,6.631939,-3.25372,-0.22223,0.171868,-0.145489,21.80353
8120,4095,-1.714248,6.564901,-3.442862,-0.345069,0.066882,-0.153749,21.797647
8130,4095,-2.1883,6.830657,-3.632004,-0.391167,0.153749,-0.188122,21.785883
8140,4095,-2.382231,7.256825,-3.533842,-0.325351,0.432735,-0.238484,21.771177
8150,1535,-2.061408,7.467515,-3.632004,-0.27872,0.619792,-0.306965,21.791765
8160,1953,-1.714248,7.802703,-3.476381,-0.259801,0.73144,-0.347734,21.797647
8170,2034,-1.338359,8.152257,-3.603274,-0.258469,0.931819,-0.358126,21.785883
8180,2034,-0.670376,8.588001,-3.758897,-0.310162,1.259568,-0.362655,21.800589
8190,2002,0.337582,9.464279,-3.203442,-0.367185,1.63528,-0.364787,21.809412
8200,1975,1.644817,10.869676,-2.461239,-0.311228,1.80555,-0.340006,21.80353
8210,2000,3.021482,12.270284,-2.305616,-0.136962,1.607568,-0.24408,21.809412
8220,1997,3.627216,13.086706,-3.141193,0.014123,1.171103,-0.079939,21.794706
8230,1950,3.13401,13.194446,-4.381389,0.057556,0.777538,0.10472,21.800589
8240,1935,2.030283,12.868834,-4.984728,0.07381,0.492423,0.274989,21.800589
8250,1935,0.845153,11.892,-5.188235,0.155348,0.251274,0.346135,21.782942
8260,1951,-0.138864,10.618284,-4.970363,0.25607,0.05196,0.272858,21.80353
8270,1879,-0.560243,9.873688,-4.367024,0.375446,-0.042368,0.092462,21.797647
8280,1847,-0.466869,9.797073,-3.734955,0.496953,-0.058089,-0.104986,21.794706
8290,1814,-0.088585,10.491392,-3.25372,0.580622,0.058089,-0.276855,21.806471
8300,1929,0.665588,12.239159,-2.432509,0.666689,0.2614,-0.401825,21.818235
8310,1974,1.762132,14.841657,-1.927332,0.763148,0.579289,-0.461513,21.800589
8320,2150,2.99754,17.281347,-2.257732,0.750891,0.916364,-0.446325,21.80353
8330,2286,4.089296,18.363527,-3.854665,0.49189,1.22626,-0.337608,21.818235
8340,2378,5.08289,17.549498,-5.157111,0.242747,1.309397,-0.112181,21.812353
8350,2307,5.626374,14.429853,-5.343858,0.207308,1.045332,0.158012,21.812353
8360,2142,4.764462,10.618284,-5.102044,0.411418,0.484962,0.349599,21.806471
8370,2033,2.92332,7.541735,-4.422091,0.563035,-0.107384,0.422077,21.815294
8380,1988,1.022324,5.681441,-2.717419,0.548113,-0.451387,0.381841,21.806471
8390,2024,-0.694318,4.948815,-1.345541,0.41728,-0.275256,0.250741,21.794706
8400,1909,-1.582567,5.106832,-0.97444,0.372248,0.16947,0.099657,21.80353
8410,1671,-1.647211,6.050148,-0.859518,0.43087,0.516404,-0.029577,21.800589
8420,1479,-1.371878,7.10599,-0.955287,0.470839,0.739433,-0.147887,21.794706
8430,1587,-1.034295,7.814674,-1.09415,0.368518,1.00483,-0.215568,21.818235
8440,1560,-0.241814,8.360553,-1.216254,0.142557,1.366153,-0.216101,21.806471
8450,1815,1.177947,9.11712,-1.309628,-0.083936,1.665657,-0.171868,21.806471
8460,2256,3.016694,9.959879,-1.604115,-0.258469,1.799954,-0.094594,21.809412
8470,2421,4.551377,10.840945,-1.87466,-0.434067,1.723479,-0.007994,21.80353
8480,2088,5.839458,11.51611,-2.03986,-0.502815,1.369617,0.045032,21.821177
8490,1605,6.40449,11.801021,-2.190695,-0.419145,0.715985,0.04823,21.818235
8500,1211,5.935226,11.221623,-2.264915,-0.323219,0.024515,0.053292,21.824118
8510,1105,5.106832,9.849746,-1.99437,-0.305632,-0.454319,0.053026,21.824118
8520,1062,4.414908,8.420407,-1.778892,-0.409286,-0.753023,0.045032,21.827059
8530,1408,3.785233,7.615956,-1.683124,-0.556907,-1.001632,0.032508,21.818235
8540,1831,3.05979,7.548918,-1.752556,-0.65683,-1.220665,0.043167,21.827059
8550,2189,2.312799,7.841011,-1.805228,-0.693602,-1.362156,0.085801,21.821177
8560,2449,1.434127,7.975086,-1.764527,-0.692802,-1.421577,0.161743,21.818235
8570,2624,0.624887,7.699753,-1.843535,-0.681345,-1.402658,0.273923,21.806471
8580,2901,-0.131681,7.249643,-2.111686,-0.70506,-1.227326,0.377044,21.809412
8590,3399,-0.732626,6.950367,-2.020706,-0.743697,-0.92649,0.431403,21.812353
8600,3855,-0.828394,6.983886,-1.984793,-0.751158,-0.644306,0.442328,21.824118
8610,4095,-0.529119,7.328651,-2.051831,-0.747694,-0.426873,0.418613,21.821177
8620,4095,-0.241814,7.704541,-2.123657,-0.732505,-0.222496,0.375712,21.80353
8630,4095,0,7.908048,-2.13084,-0.662159,-0.049296,0.338141,21.797647
8640,3770,0.311246,7.905654,-2.06859,-0.573161,0.027712,0.335476,21.809412
8650,3203,0.632069,7.740454,-2.195483,-0.529194,0.045832,0.340273,21.818235
8660,2640,0.919373,7.764396,-2.336741,-0.501216,0.030377,0.328282,21.812353
8670,2469,1.086968,7.891289,-2.260126,-0.471905,0.017853,0.365054,21.818235
8680,2498,0.885855,8.02297,-2.221819,-0.432469,-0.081804,0.403158,21.818235
8690,2529,0.392649,8.061277,-2.403779,-0.370383,-0.157479,0.444726,21.827059
8700,2485,-0.117316,8.106767,-2.626439,-0.32242,-0.168937,0.479899,21.806471
8710,2452,-0.354342,8.305486,-2.856283,-0.276055,-0.164407,0.491357,21.809412
8720,2229,-0.497994,8.60955,-3.086126,-0.210772,-0.200113,0.492423,21.821177
8730,2018,-0.486023,8.695741,-3.296816,-0.153216,-0.249675,0.506545,21.838823
8740,1799,-0.301669,8.540117,-3.339911,-0.104187,-0.302435,0.490824,21.824118
8750,1574,-0.093374,8.259995,-3.076549,-0.087933,-0.341871,0.468175,21.827059
8760,1382,0.196325,7.788338,-2.466028,-0.108184,-0.370649,0.46098,21.806471
8770,1244,0.280122,7.211336,-2.140416,-0.170802,-0.397296,0.445792,21.806471
8780,1168,0.035913,6.955156,-1.99437,-0.293109,-0.387969,0.429538,21.797647
8790,1008,-0.287304,7.204153,-1.912967,-0.415948,-0.317357,0.40822,21.80353
8800,784,-0.505177,7.848193,-1.764527,-0.522266,-0.184392,0.355727,21.812353
8810,702,-0.770933,8.633492,-1.73819,-0.605403,-0.027179,0.273923,21.818235
8820,767,-0.890643,9.198523,-1.807622,-0.647237,0.152683,0.176665,21.815294
8830,1037,-0.785298,9.598354,-1.989582,-0.673084,0.336009,0.081538,21.806471
8840,799,-0.35913,9.871294,-2.166753,-0.710123,0.456983,0.01279,21.812353
8850,1107,0.196325,10.199299,-2.322376,-0.749825,0.489225,-0.040236,21.821177
8860,3886,0.837971,10.656591,-2.319981,-0.794058,0.43007,-0.071678,21.815294
8870,4095,1.73819,11.255142,-2.470816,-0.860674,0.289911,-0.119908,21.812353
8880,2877,2.566584,12.121843,-2.5187,-0.92196,0.130034,-0.168671,21.827059
8890,1007,3.318364,13.065159,-2.240973,-0.903574,-0.142025,-0.184925,21.809412
8900,1575,3.598485,13.792996,-1.917756,-0.837225,-0.47377,-0.191054,21.83
8910,1446,3.215413,14.269443,-1.745373,-0.750891,-0.716784,-0.242747,21.827059
8920,1299,2.389413,14.580688,-1.54426,-0.677881,-0.803917,-0.350931,21.827059
8930,1244,1.549049,14.726735,-1.225831,-0.619259,-0.773274,-0.471372,21.818235
8940,1305,0.897826,14.614207,-0.723049,-0.553975,-0.623789,-0.585152,21.835882
8950,1261,0.612916,14.195222,-0.227449,-0.44739,-0.302968,-0.665357,21.821177
8960,1199,0.871489,13.625401,0.148441,-0.266196,0.0874,-0.719982,21.818235
8970,1293,1.563414,12.864046,0.347159,-0.042368,0.436998,-0.7397,21.800589
8980,1426,2.501941,11.753136,0.184354,0.163342,0.789262,-0.734371,21.821177
8990,1408,3.655946,10.534488,0.138864,0.347201,1.15325,-0.751691,21.824118
9000,1473,4.884171,9.277532,0.411803,0.515338,1.329115,-0.741299,21.821177
9010,1659,6.517017,8.145074,0.426168,0.618726,1.130067,-0.660827,21.83
9020,1741,7.955932,7.728483,0.079009,0.536123,0.544649,-0.621923,21.835882
9030,1819,8.2169,8.590396,-0.509965,0.379176,-0.306965,-0.624588,21.844706
9040,1903,7.232883,10.268731,-1.405396,0.308564,-1.058389,-0.610199,21.812353
9050,2033,5.434838,11.903971,-2.300828,0.340806,-1.421577,-0.539853,21.809412
9060,2350,3.445256,12.677298,-2.420538,0.450322,-1.42291,-0.371182,21.806471
9070,2372,2.090138,12.588713,-2.391808,0.467642,-1.240916,-0.230224,21.812353
9080,2366,0.816423,12.636597,-1.884237,0.429538,-1.06132,-0.179596,21.818235
9090,2023,-0.131681,12.751518,-2.015918,0.480965,-0.942211,-0.110582,21.815294
9100,1701,-0.751779,12.35887,-2.049437,0.573694,-0.778603,-0.048496,21.824118
9110,1629,-0.950498,11.621455,-1.984793,0.68774,-0.517204,-0.046098,21.835882
9120,1629,-0.964863,10.845734,-1.927332,0.831096,-0.274723,-0.102588,21.838823
9130,1725,-0.857124,10.000581,-2.133234,0.949672,-0.068214,-0.14762,21.83
9140,1735,-0.560243,9.114726,-2.202666,1.004031,0.131366,-0.150818,21.824118
9150,1655,-0.107739,8.250419,-2.054225,1.00856,0.274456,-0.151884,21.824118
9160,1280,0.287304,7.601591,-2.142811,1.01762,0.316025,-0.174799,21.824118
9170,974,0.536301,7.072472,-2.358289,1.011492,0.301902,-0.206508,21.838823
9180,1066,0.679953,6.663064,-2.568978,0.977651,0.279253,-0.239816,21.83
9190,1406,0.76375,6.40449,-2.743755,0.919296,0.244613,-0.268061,21.832941
9200,1715,0.701501,6.133945,-2.767697,0.844953,0.19132,-0.271792,21.83
9210,1749,0.588974,5.911284,-2.89459,0.752224,0.127103,-0.252606,21.83
9220,1707,0.488417,5.674258,-2.925714,0.640309,0.113779,-0.196383,21.83
9230,1712,0.328006,5.564125,-2.80361,0.493222,0.138827,-0.14309,21.824118
9240,1887,0.117316,5.518635,-2.77488,0.358658,0.144156,-0.088732,21.827059
9250,1988,-0.076614,5.432444,-2.885013,0.233155,0.132698,-0.040769,21.838823
9260,2095,-0.304064,5.358223,-2.992752,0.115911,0.15668,-0.002665,21.835882
9270,2059,-0.519542,5.406107,-3.035848,0.010658,0.2169,0.017587,21.824118
9280,1743,-0.651223,5.523423,-3.138798,-0.078873,0.282184,0.025047,21.835882
9290,1478,-0.727837,5.633556,-3.246537,-0.171602,0.334144,0.041302,21.83
9300,1487,-0.593762,5.753267,-3.351882,-0.270726,0.345602,0.057289,21.824118
9310,1594,-0.447716,5.940014,-3.3447,-0.353862,0.276055,0.06555,21.827059
9320,1823,-0.426168,6.212954,-3.402161,-0.388502,0.086867,0.046897,21.824118
9330,2064,-0.646434,6.440403,-3.8403,-0.392233,-0.129501,0.009326,21.821177
9340,2263,-0.897826,6.440403,-4.240131,-0.427406,-0.130034,-0.055957,21.809412
9350,2379,-0.993594,6.720524,-4.352659,-0.465776,0.060487,-0.14762,21.827059
9360,2398,-0.720655,7.299921,-4.41012,-0.440995,0.267528,-0.237418,21.835882
9370,2362,-0.385466,7.943961,-4.474763,-0.33521,0.514805,-0.291776,21.818235
9380,2359,0.102951,8.310274,-4.359841,-0.275789,0.850548,-0.324818,21.841764
9390,2454,1.134852,8.892065,-2.928109,-0.308564,1.143124,-0.333078,21.85647
9400,2640,2.77488,10.465055,-1.436521,-0.213436,1.089832,-0.286447,21.832941
9410,2768,3.945644,12.140997,-2.832341,0.060753,0.690404,-0.146821,21.832941
9420,2619,3.895366,13.261483,-5.003881,0.212104,0.184658,0.076741,21.835882
9430,2234,2.916138,14.257471,-5.705383,0.049296,-0.029577,0.315225,21.83
9440,1954,1.766921,14.69561,-5.269638,-0.114579,-0.040769,0.520401,21.838823
9450,2038,0.6608,14.106636,-4.893748,-0.009593,-0.138827,0.626453,21.824118
9460,1778,-0.512359,12.095507,-5.023035,0.260334,-0.362389,0.608867,21.847647
9470,1648,-1.711854,9.325416,-5.147533,0.442328,-0.633648,0.462579,21.844706
9480,1669,-2.741361,7.017405,-5.391742,0.458049,-0.814842,0.225694,21.844706
9490,1770,-3.459621,6.593631,-5.300763,0.450055,-0.619792,-0.043167,21.835882
9500,1844,-3.394978,7.805098,-4.84347,0.55664,-0.103387,-0.281917,21.827059
9510,1939,-2.506729,9.799467,-4.242526,0.70053,0.395963,-0.4791,21.841764
9520,2039,-1.331176,12.51928,-3.981557,0.756753,0.807381,-0.588882,21.824118
9530,1929,0.225055,15.868769,-3.873818,0.745829,1.120475,-0.590481,21.83
9540,1895,2.202666,18.887857,-3.775656,0.693868,1.371216,-0.506279,21.838823
9550,1889,4.211401,20.037073,-4.15394,0.550511,1.558272,-0.351464,21.847647
9560,1520,5.554548,18.083405,-4.556166,0.457783,1.552943,-0.113513,21.850588
9570,2240,6.026206,13.639767,-4.649539,0.476968,1.211871,0.137228,21.847647
9580,4095,5.305551,9.270349,-3.907337,0.490824,0.619259,0.346934,21.835882
9590,4095,3.773262,6.873753,-3.325546,0.475636,0.077274,0.458848,21.844706
9600,2256,2.178724,6.287174,-1.391031,0.511075,-0.278187,0.519335,21.838823
9610,1263,0.603339,6.409278,-0.744597,0.590214,-0.55664,0.418879,21.841764
9620,1625,-1.022324,6.58166,-0.871489,0.551844,-0.394631,0.317623,21.841764
9630,1483,-1.759738,7.175423,-0.895431,0.511075,0.067948,0.217167,21.853529
9640,1607,-1.678335,7.797915,-0.727837,0.474303,0.525198,0.147087,21.838823
9650,1616,-0.931344,7.960721,-0.773327,0.328548,0.950472,0.184925,21.821177
9660,1420,0.208296,7.750031,-0.897826,0.090864,1.343504,0.239017,21.838823
9670,1344,1.563414,7.694964,-0.981623,-0.146821,1.579323,0.242747,21.83
9680,1535,3.069367,8.11395,-1.391031,-0.336009,1.617694,0.224628,21.835882
9690,1330,4.556166,8.980651,-1.833959,-0.472171,1.479666,0.219032,21.850588
9700,1295,5.932832,10.201694,-1.975216,-0.497485,1.104753,0.198248,21.832941
9710,1493,6.634333,11.164163,-2.054225,-0.417813,0.439397,0.162009,21.835882
9720,1776,6.244078,10.919954,-1.975216,-0.367185,-0.270459,0.132432,21.835882
9730,1919,5.310339,9.581595,-1.862689,-0.419145,-0.735969,0.069813,21.838823
9740,2098,4.197036,8.288726,-1.735796,-0.538521,-0.971789,-0.015988,21.835882
9750,2097,3.457227,7.76679,-1.848324,-0.641109,-1.194018,-0.048496,21.835882
9760,2325,2.798822,7.905654,-1.917756,-0.718649,-1.422643,-0.042368,21.832941
9770,2624,1.912967,8.274361,-1.80044,-0.7389,-1.586784,-0.000533,21.827059
9780,2807,1.118092,8.240842,-1.824382,-0.720515,-1.607035,0.080472,21.841764
9790,2937,0.3304,7.984663,-1.927332,-0.701862,-1.486861,0.192386,21.835882
9800,3011,-0.141258,7.76679,-1.975216,-0.701862,-1.342971,0.293375,21.835882
9810,3174,-0.727837,7.553706,-2.032677,-0.705326,-1.117011,0.380775,21.841764
9820,3425,-1.254562,7.433996,-2.080561,-0.677881,-0.852946,0.470839,21.865294
9830,3363,-1.127669,7.412448,-2.200271,-0.655764,-0.54838,0.518536,21.844706
9840,2994,-0.35913,7.536947,-2.200271,-0.614196,-0.288312,0.45645,21.838823
9850,2702,0.043096,7.762002,-2.207454,-0.567032,-0.159345,0.378643,21.844706
9860,2419,0.409408,7.891289,-2.202666,-0.548646,-0.11751,0.352263,21.853529
9870,2235,0.47884,7.943961,-2.102109,-0.533991,-0.113779,0.345868,21.868235
9880,2209,0.531513,7.941567,-2.291251,-0.498818,-0.123639,0.344536,21.865294
9890,2288,0.56982,7.888895,-2.240973,-0.453519,-0.116977,0.383173,21.85647
9900,2333,0.536301,7.807492,-2.334347,-0.417547,-0.184658,0.409553,21.853529
9910,2101,0.124498,7.845799,-2.525883,-0.41275,-0.258735,0.423142,21.850588
9920,1918,-0.265756,8.092402,-2.770091,-0.385305,-0.272325,0.421011,21.83
9930,1954,-0.612916,8.360553,-3.038242,-0.333078,-0.243813,0.426873,21.838823
9940,2084,-0.730232,8.643068,-3.268085,-0.268861,-0.251274,0.438864,21.847647
9950,2174,-0.758962,8.884883,-3.670311,-0.205443,-0.281651,0.446591,21.859411
9960,2352,-0.656011,8.930372,-3.787627,-0.142824,-0.303234,0.442328,21.862352
9970,2411,-0.548272,8.822633,-3.792415,-0.09566,-0.309096,0.43087,21.850588
9980,2265,-0.395043,8.578424,-3.454833,-0.057289,-0.331746,0.418879,21.832941
9990,2044,-0.392649,8.2169,-3.114856,-0.055424,-0.367452,0.400227,21.838823
10000,1966,-0.713472,7.795521,-2.717419,-0.116444,-0.348,0.388236,21.847647
10010,1879,-0.893037,7.426814,-2.499547,-0.235286,-0.252606,0.37438,21.83
10020,1713,-0.826,7.429208,-2.190695,-0.34347,-0.120708,0.346668,21.83
10030,1566,-0.708684,7.716512,-2.027889,-0.444459,-0.019985,0.308564,21.841764
10040,1286,-0.744597,8.197746,-2.104503,-0.543317,0.058622,0.264331,21.841764
10050,799,-0.723049,8.729259,-2.298434,-0.617926,0.155348,0.195317,21.844706
10060,592,-0.691924,9.313444,-2.485181,-0.658962,0.261133,0.099657,21.844706
10070,702,-0.45011,9.957485,-2.760514,-0.667755,0.345069,0.009326,21.847647
10080,966,-0.09098,10.656591,-2.82037,-0.698132,0.387436,-0.058089,21.847647
10090,1193,0.500388,11.331757,-2.679112,-0.761017,0.386637,-0.135629,21.832941
10100,1296,1.321599,12.066776,-3.081338,-0.788995,0.38344,-0.222763,21.850588
10110,1456,2.190695,12.696451,-2.947262,-0.768478,0.294175,-0.273391,21.859411
10120,1695,3.081338,12.926295,-2.501941,-0.733305,0.079139,-0.285648,21.847647
10130,1811,3.667917,12.914324,-2.243367,-0.713587,-0.199047,-0.315492,21.85647
10140,1813,3.622427,12.976573,-2.056619,-0.72158,-0.462312,-0.395164,21.853529
10150,1701,3.05979,13.266272,-1.63524,-0.733038,-0.632049,-0.501482,21.850588
10160,1526,2.286463,13.520057,-0.859518,-0.728775,-0.633914,-0.593412,21.85647
10170,1430,1.568202,13.577518,-0.198719,-0.706658,-0.455118,-0.667755,21.85647
10180,1387,1.369483,13.603854,0.25618,-0.586217,-0.164674,-0.737302,21.868235
10190,1491,1.774103,13.383588,0.785298,-0.387969,0.169737,-0.762083,21.847647
10200,1599,2.691083,12.789825,1.039083,-0.137761,0.51294,-0.754888,21.847647
10210,1455,3.881001,11.935096,0.682347,0.209972,0.793259,-0.725311,21.85647
10220,1131,5.396531,10.740389,0.062249,0.494821,0.962995,-0.671485,21.853529
10230,773,7.082048,9.651027,0.086191,0.633648,0.789528,-0.624855,21.868235
10240,918,8.535329,9.006987,0.169988,0.609666,0.177464,-0.558772,21.862352
10250,1266,9.172187,9.105149,-0.215478,0.454585,-0.750092,-0.508677,21.85647
10260,1476,8.283937,9.962274,-0.790087,0.277121,-1.626221,-0.489492,21.838823
10270,1703,6.110003,11.113884,-1.137246,0.171868,-2.171136,-0.436199,21.859411
10280,2147,3.813963,11.786655,-1.522712,0.165473,-2.402692,-0.325884,21.868235
10290,4095,1.692701,11.971008,-2.413355,0.163608,-2.382974,-0.213969,21.877058
10300,4095,-0.213084,11.985373,-3.050213,0.132698,-2.111715,-0.126303,21.853529
10310,4067,-1.848324,12.277467,-3.342306,0.186524,-1.683776,-0.033041,21.844706
10320,1122,-2.633622,12.457031,-3.198653,0.334144,-1.233721,0.038371,21.853529
10330,1435,-2.731784,12.167333,-2.791639,0.536922,-0.815109,0.049029,21.85647
10340,1425,-2.705448,11.415554,-2.65517,0.753556,-0.418346,0.016254,21.868235
10350,1316,-2.516306,10.441113,-2.868254,0.915565,-0.03091,-0.022383,21.865294
10360,1339,-2.231396,9.437943,-2.870648,0.981115,0.313626,-0.058089,21.859411
10370,1431,-1.922544,8.384495,-2.624045,0.997636,0.587283,-0.107651,21.862352
10380,1398,-1.575385,7.455544,-2.47321,1.007761,0.800453,-0.174533,21.862352
10390,1347,-1.053449,6.622362,-2.439692,1.011225,0.950205,-0.236619,21.865294
10400,1462,-0.462081,5.975927,-2.396596,0.996836,1.009626,-0.292842,21.853529
10410,1648,0.098162,5.468357,-2.468422,0.922493,1.00856,-0.328282,21.859411
10420,1991,0.514753,5.121197,-2.647987,0.800453,0.982714,-0.332012,21.850588
10430,2267,0.837971,5.056554,-2.693477,0.664824,0.921427,-0.330946,21.85647
10440,2384,0.995988,5.236119,-2.777274,0.566499,0.820172,-0.288579,21.865294
10450,2272,1.211466,5.396531,-2.786851,0.503881,0.700796,-0.182793,21.862352
10460,2168,1.264138,5.45878,-2.815581,0.423675,0.544649,-0.113247,21.850588
10470,2108,0.90022,5.628768,-2.954445,0.301369,0.3917,-0.074609,21.862352
10480,1997,0.462081,5.765238,-3.10528,0.164141,0.329081,-0.053825,21.844706
10490,2071,0.186748,5.887342,-3.174711,0.045565,0.351997,-0.049029,21.835882
10500,2032,0.004788,5.971139,-3.13401,-0.059954,0.389835,-0.075409,21.859411
10510,2069,-0.098162,6.162675,-3.234566,-0.154282,0.394631,-0.082337,21.853529
10520,2057,-0.134075,6.466739,-3.308787,-0.214769,0.337874,-0.061286,21.877058
10530,2163,-0.246603,6.76362,-3.32794,-0.253406,0.219565,-0.029311,21.874117
10540,2389,-0.529119,6.904878,-3.330335,-0.302168,0.087133,-0.011191,21.859411
10550,2559,-1.007959,6.880936,-3.462016,-0.366919,0.002931,-0.004263,21.868235
10560,2608,-1.563414,6.998251,-3.497929,-0.396763,-0.015455,-0.011191,21.853529
10570,2599,-1.82917,7.113173,-3.694253,-0.389835,0.021317,-0.033574,21.85647
10580,2481,-1.831564,7.295133,-3.811569,-0.369583,0.115911,-0.092462,21.879999
10590,2401,-1.654393,7.460332,-3.770868,-0.36532,0.28698,-0.158812,21.868235
10600,2415,-1.221043,7.697359,-3.763685,-0.398894,0.533724,-0.219565,21.85647
10610,2244,-0.799663,8.099585,-3.677494,-0.491357,0.905972,-0.220364,21.844706
10620,2150,-0.217872,8.892065,-3.335123,-0.647504,1.360557,-0.184126,21.85647
10630,2149,1.027112,10.582372,-2.875436,-0.621657,1.497253,-0.120441,21.844706
10640,2117,2.406173,12.433089,-3.0143,-0.388236,1.148187,-0.051161,21.85647
10650,2084,2.868254,13.898341,-3.792415,-0.14762,0.787663,0.058622,21.871176
10660,1883,2.3535,14.911088,-4.388572,0.029577,0.706392,0.20491,21.850588
10670,1729,1.900996,14.887146,-4.819528,0.19585,0.634714,0.366119,21.862352
10680,1749,1.448492,13.666103,-4.958392,0.352263,0.313093,0.448456,21.85647
10690,1719,0.454898,11.597513,-5.406107,0.461513,-0.119375,0.389835,21.859411
10700,1681,-0.574608,9.935937,-5.351041,0.569164,-0.384505,0.222763,21.879999
10710,1776,-1.249773,9.251195,-4.505888,0.770077,-0.4354,0.042634,21.868235
10720,1709,-1.264138,9.32781,-3.952827,0.933684,-0.247011,-0.106319,21.877058
10730,1632,-0.600945,10.508151,-3.643975,0.986178,0.173467,-0.217433,21.871176
10740,1595,0.636858,13.153744,-3.167529,1.02668,0.559838,-0.261933,21.88294
10750,1603,2.169147,16.175226,-3.330335,0.972588,0.764747,-0.233954,21.853529
10760,1692,3.44765,18.310854,-4.357447,0.689338,0.980049,-0.159078,21.859411
10770,1762,4.898537,18.526333,-4.649539,0.455118,1.028545,-0.015455,21.868235
10780,1789,5.597643,15.334862,-5.26485,0.464977,0.792992,0.166273,21.85647
10790,1923,5.102044,10.730812,-5.3678,0.506545,0.307764,0.367985,21.865294
10800,1995,3.715801,7.438785,-4.402937,0.4791,-0.149752,0.478567,21.865294
10810,1808,1.850718,5.8634,-3.706224,0.432735,-0.386903,0.465243,21.865294
10820,1735,0.667982,5.822699,-1.647211,0.471905,-0.468974,0.387969,21.865294
10830,1699,-0.344765,6.155493,-1.134852,0.521201,-0.416747,0.254205,21.862352
10840,1871,-1.149217,6.797139,-1.125275,0.468708,-0.179329,0.12204,21.868235
10850,2058,-1.513135,7.790732,-1.18513,0.378643,0.188922,0.030643,21.853529
10860,1945,-1.343147,8.717288,-1.244985,0.260334,0.63578,0.02558,21.868235
10870,1794,-0.526724,9.251195,-1.175553,0.103387,1.109816,0.104187,21.868235
10880,1600,0.711078,9.423578,-1.046266,-0.057023,1.485262,0.178796,21.865294
10890,1982,2.152387,9.416395,-1.206678,-0.222763,1.659528,0.189988,21.853529
10900,2542,3.557784,9.495404,-1.661576,-0.371182,1.647271,0.176931,21.877058
10910,2630,5.001487,9.622296,-1.90339,-0.443394,1.380009,0.151351,21.859411
10920,2224,5.930438,9.797073,-2.080561,-0.414349,0.864671,0.121773,21.888824
10930,1658,5.920861,9.497798,-2.291251,-0.388236,0.320821,0.14389,21.868235
10940,1227,5.57849,8.808268,-2.094927,-0.417014,-0.112181,0.160943,21.862352
10950,1132,5.12838,8.06846,-1.941698,-0.483096,-0.475103,0.156946,21.879999
10960,1264,4.69503,7.505822,-1.826776,-0.578757,-0.800453,0.170536,21.877058
10970,1456,4.189853,7.256825,-1.747767,-0.683476,-1.078107,0.201979,21.88294
10980,1393,3.533842,7.271191,-1.786075,-0.781268,-1.316591,0.228891,21.88294
10990,2298,2.681506,7.366959,-1.714248,-0.832162,-1.499651,0.255271,21.877058
11000,4095,1.798046,7.256825,-1.759738,-0.828432,-1.584919,0.330946,21.88294
11010,4095,1.034295,7.07726,-1.704672,-0.840156,-1.540686,0.424208,21.868235
11020,3583,0.306458,6.969521,-1.75495,-0.856943,-1.39573,0.528129,21.868235
11030,2318,-0.196325,7.067683,-1.810017,-0.87453,-1.186824,0.593145,21.874117
11040,2697,-0.411803,7.457938,-2.006341,-0.887853,-0.979516,0.564101,21.874117
11050,2531,-0.538695,8.070854,-2.018312,-0.848949,-0.772208,0.497752,21.885881
11060,2239,-0.529119,8.477868,-2.013524,-0.757286,-0.600606,0.442061,21.879999
11070,1952,-0.306458,8.465898,-2.322376,-0.650435,-0.433801,0.402358,21.865294
11080,1853,0.038307,8.334216,-2.394202,-0.579289,-0.298971,0.365853,21.865294
11090,1815,0.316035,8.252813,-2.600103,-0.550778,-0.268594,0.334677,21.874117
11100,1968,0.435745,8.121132,-2.291251,-0.506279,-0.253672,0.386104,21.885881
11110,2098,0.363919,7.785944,-2.387019,-0.475103,-0.29524,0.431669,21.871176
11120,2239,-0.100556,7.620744,-2.578555,-0.485495,-0.345069,0.45725,21.877058
11130,2335,-0.691924,7.671022,-2.880225,-0.480432,-0.327482,0.49562,21.871176
11140,2308,-1.058237,7.970297,-3.110068,-0.465776,-0.244346,0.52573,21.877058
11150,2341,-1.211466,8.42759,-3.270479,-0.423942,-0.189455,0.526263,21.879999
11160,2427,-1.273715,8.813056,-3.433285,-0.361323,-0.191587,0.503881,21.874117
11170,2704,-1.134852,8.791509,-3.46441,-0.289378,-0.206508,0.473504,21.88294
11180,2949,-0.960075,8.499416,-3.560178,-0.220364,-0.190254,0.446058,21.888824
11190,2918,-0.565032,8.013393,-3.29921,-0.201712,-0.155881,0.417547,21.879999
11200,2801,-0.25618,7.510611,-3.062184,-0.243014,-0.109783,0.403957,21.879999
11210,2641,-0.107739,7.297527,-2.782062,-0.320554,-0.055424,0.396763,21.888824
11220,2537,0.019154,7.48188,-2.5187,-0.395164,-0.035972,0.386637,21.891766
11230,2365,0.093374,7.884106,-2.47321,-0.474836,-0.019985,0.369317,21.891766
11240,2191,0.196325,8.365341,-2.32477,-0.546248,0.023982,0.337608,21.891766
11250,1904,0.177171,8.8777,-2.111686,-0.599807,0.07008,0.29151,21.894707
11260,1739,0.014365,9.339781,-2.164358,-0.628319,0.104187,0.223828,21.874117
11270,1559,-0.162806,9.710882,-2.274492,-0.652034,0.169204,0.145755,21.88294
11280,1315,-0.244209,10.115502,-2.475605,-0.671752,0.255538,0.074343,21.88294
11290,1162,-0.002394,10.635044,-2.693477,-0.692802,0.345069,0.008527,21.885881
11300,1243,0.581791,11.180922,-2.401384,-0.725577,0.397828,-0.056757,21.894707
11310,1431,1.63524,11.662156,-2.427721,-0.775139,0.405556,-0.128968,21.888824
11320,1583,2.863465,12.231977,-2.377442,-0.808181,0.37891,-0.205976,21.897648
11330,1669,4.129998,12.74673,-2.075773,-0.81351,0.195051,-0.221963,21.891766
11340,1664,5.085284,13.113043,-1.778892,-0.788196,-0.135096,-0.241415,21.88294
11350,1578,5.327099,13.318944,-1.489193,-0.770876,-0.446591,-0.3051,21.888824
11360,1383,4.922479,13.53921,-0.871489,-0.783666,-0.64857,-0.434334,21.894707
11370,1213,3.981557,13.826515,-0.136469,-0.7834,-0.781002,-0.580355,21.888824
11380,1079,2.571373,14.099454,0.435745,-0.770343,-0.768211,-0.712521,21.897648
11390,1119,1.295263,14.322115,0.926556,-0.66962,-0.581421,-0.823369,21.88294
11400,1369,0.725443,14.243106,1.302446,-0.452187,-0.243547,-0.88359,21.885881
11410,1529,1.223437,13.615825,1.584962,-0.157746,0.282983,-0.889718,21.88294
11420,1434,2.494758,12.734758,1.572991,0.265663,0.824968,-0.894515,21.888824
11430,1184,4.455609,11.674128,1.096544,0.770609,1.13966,-0.835093,21.897648
11440,1168,6.868965,10.287885,0.016759,1.171902,1.07411,-0.728242,21.894707
11450,1346,9.064447,8.698134,-1.010353,1.178564,0.494554,-0.675216,21.885881
11460,1342,9.665392,8.336611,-0.560243,0.87373,-0.533458,-0.643773,21.885881
11470,1441,8.640674,9.143456,-0.658405,0.575825,-1.428772,-0.553975,21.897648
11480,1603,6.399701,10.117896,-0.878672,0.416747,-1.90121,-0.38717,21.885881
11490,1929,4.046201,10.508151,-1.381454,0.319489,-2.077075,-0.155081,21.888824
11500,2371,2.140416,10.907983,-2.214637,0.176931,-2.083204,-0.002665,21.90353
11510,2312,0.320823,12.01171,-2.650381,0.05649,-2.006462,0.040236,21.877058
11520,2047,-1.199495,13.369223,-2.858677,0.089531,-1.894015,0.038371,21.868235
11530,1779,-2.190695,13.93186,-2.937685,0.230224,-1.639544,0.02185,21.879999
11540,1583,-2.930503,13.517663,-2.681506,0.45272,-1.145789,-0.017853,21.888824
11550,1454,-3.033453,12.397177,-2.396596,0.725311,-0.540919,-0.067948,21.88294
11560,1386,-2.504335,11.010934,-2.566584,0.910236,-0.018119,-0.146021,21.906471
11570,1174,-2.006341,9.679757,-2.530671,0.96566,0.325351,-0.184925,21.894707
11580,687,-1.582567,8.379706,-2.403779,0.992839,0.536123,-0.176665,21.879999
11590,576,-1.244985,7.314286,-2.396596,1.034674,0.689871,-0.170536,21.88294
11600,1099,-0.861913,6.50744,-2.37026,1.040003,0.811112,-0.207574,21.879999
11610,1328,-0.430956,6.069301,-2.363077,1.006162,0.901443,-0.267528,21.88294
11620,1437,0.09098,5.865794,-2.260126,0.964328,0.936616,-0.309363,21.888824
11630,1694,0.584185,5.734113,-2.363077,0.910502,0.89638,-0.314692,21.891766
11640,1776,0.924162,5.724536,-2.458845,0.847617,0.799387,-0.287247,21.900589
11650,1710,1.091756,5.726931,-2.427721,0.770876,0.685874,-0.244346,21.897648
11660,1596,1.079785,5.638345,-2.355895,0.678946,0.605669,-0.192652,21.894707
11670,1410,1.034295,5.391742,-2.446874,0.570496,0.543051,-0.134297,21.88294
11680,1136,0.931344,5.114015,-2.528277,0.438597,0.483096,-0.074609,21.885881
11690,1294,0.881066,4.857835,-2.671929,0.29604,0.438597,-0.040236,21.888824
11700,3767,0.754174,4.812346,-2.736573,0.160144,0.402625,-0.040769,21.897648
11710,4095,0.555455,4.908113,-2.82037,0.04823,0.359724,-0.053292,21.897648
11720,3819,0.385466,5.123591,-2.983175,-0.049562,0.288312,-0.054891,21.885881
11730,1415,0.1652,5.374983,-3.131616,-0.134031,0.154548,-0.036772,21.897648
11740,1829,-0.143652,5.600038,-3.311181,-0.206508,-0.022649,-0.038637,21.885881
11750,1904,-0.610521,5.849035,-3.466804,-0.264864,-0.174533,-0.066882,21.891766
11760,1985,-1.067814,6.117185,-3.61285,-0.293908,-0.219299,-0.123106,21.88294
11770,2179,-1.347936,6.514623,-3.485958,-0.257936,-0.14842,-0.194518,21.888824
11780,2326,-1.54426,6.859388,-3.3447,-0.180662,0.021583,-0.269926,21.888824
11790,2416,-1.434127,7.115568,-3.74932,-0.139626,0.229691,-0.342937,21.888824
11800,2427,-0.979228,7.627927,-4.012682,-0.141225,0.398095,-0.391433,21.88294
11810,2450,-0.325611,8.178593,-3.902549,-0.208374,0.629651,-0.391433,21.891766
11820,2389,0.265756,8.966286,-3.44765,-0.414616,1.089032,-0.401293,21.874117
11830,2273,1.462857,10.642226,-1.939303,-0.630717,1.524165,-0.32162,21.888824
11840,2064,3.349488,13.278243,-2.1883,-0.446058,1.371482,-0.106851,21.885881
11850,2004,4.505888,15.114595,-4.149151,-0.089531,0.870799,0.183859,21.888824
11860,2189,3.964798,15.631742,-5.465962,0.008527,0.465776,0.436732,21.894707
11870,2398,2.557007,14.958972,-6.126762,0.003997,0.153216,0.664824,21.900589
11880,2401,1.046266,13.639767,-5.861006,0.186257,-0.201446,0.767678,21.897648
11890,2293,-0.385466,11.401189,-5.928043,0.48656,-0.531326,0.674683,21.891766
11900,2340,-1.359907,9.41879,-5.48751,0.685608,-0.725311,0.408753,21.897648
11910,2416,-1.735796,8.774749,-4.362236,0.862539,-0.750625,0.107651,21.90353
11920,2416,-1.522712,8.815451,-3.847482,0.976585,-0.577424,-0.152417,21.897648
11930,2453,-1.18513,9.890448,-3.49314,0.960864,-0.207041,-0.34427,21.894707
11940,2507,-0.526724,12.277467,-3.265691,0.919828,0.177997,-0.413017,21.915295
11950,2502,0.679953,15.200787,-3.497929,0.816707,0.533458,-0.363455,21.900589
11960,2530,2.420538,17.796101,-3.813963,0.564368,1.044266,-0.278187,21.900589
11970,2417,4.424485,19.007566,-4.189853,0.358392,1.417048,-0.101522,21.918236
11980,2192,6.117185,17.216705,-5.08289,0.351198,1.372015,0.134297,21.906471
11990,2082,6.859388,13.429077,-4.572925,0.571828,0.794591,0.350665,21.909412
12000,1886,5.307945,9.179369,-4.429273,0.827632,-0.098591,0.463378,21.897648
12010,1745,2.70066,5.760449,-3.20823,0.79992,-0.86174,0.469507,21.891766
12020,1811,0.225055,3.938462,-1.991976,0.500949,-1.058922,0.355194,21.912354
12030,1844,-1.73819,3.873818,-1.482011,0.220364,-0.700796,0.208107,21.915295
12040,1658,-2.568978,4.965574,-1.647211,0.20038,-0.243547,0.069547,21.909412
12050,1503,-2.676718,6.548141,-1.740585,0.29977,0.146288,-0.053026,21.90353
12060,1467,-2.789245,7.754819,-1.649605,0.308297,0.556107,-0.152417,21.90353
12070,1535,-2.501941,8.39886,-1.819593,0.135896,1.120741,-0.209173,21.894707
12080,1683,-1.288081,9.160215,-1.793257,-0.094861,1.724279,-0.191853,21.915295
12090,1851,0.893037,10.0341,-1.671153,-0.234221,2.087734,-0.140159,21.912354
12100,2189,3.13401,10.737994,-1.651999,-0.347201,2.168205,-0.066616,21.909412
12110,2346,4.99191,11.192893,-1.824382,-0.444992,1.982214,0.009326,21.897648
12120,2179,6.145916,11.621455,-1.922544,-0.428205,1.451421,0.013856,21.912354
12130,1895,6.289568,11.403583,-2.080561,-0.352263,0.726377,0.015721,21.900589
12140,1711,5.686229,10.254366,-2.049437,-0.362389,0.152683,0.041568,21.894707
12150,1462,4.936844,8.645462,-1.766921,-0.434067,-0.209706,0.054358,21.894707
12160,1419,4.390966,7.508216,-1.836353,-0.541985,-0.45192,0.050095,21.906471
12170,1575,3.938462,7.036559,-1.73819,-0.659228,-0.715985,0.078074,21.90353
12180,1906,3.44765,7.266402,-1.752556,-0.751957,-0.98298,0.117243,21.894707
12190,2394,2.753332,7.66384,-1.685518,-0.810579,-1.175899,0.168138,21.912354
12200,2929,1.848324,7.8865,-1.604115,-0.820172,-1.263299,0.257136,21.897648
12210,2894,1.022324,7.5561,-1.654393,-0.788462,-1.25717,0.373847,21.90353
12220,3162,0.323217,7.161057,-1.707066,-0.777538,-1.131133,0.459381,21.897648
12230,3728,-0.248997,6.902483,-1.611298,-0.773274,-0.913167,0.521467,21.894707
12240,3775,-0.47884,6.782773,-1.826776,-0.791394,-0.67042,0.559038,21.90353
12250,2853,-0.263362,7.000646,-1.932121,-0.821504,-0.444193,0.542518,21.918236
12260,2235,-0.064643,7.491457,-2.049437,-0.783666,-0.271259,0.506812,21.906471
12270,2275,0.253785,7.967903,-2.015918,-0.702395,-0.17853,0.477501,21.915295
12280,2185,0.612916,8.173804,-2.145205,-0.616594,-0.158545,0.406355,21.90353
12290,2215,0.679953,8.26239,-2.408567,-0.547314,-0.119375,0.370116,21.915295
12300,2331,0.667982,8.183381,-2.482787,-0.517737,-0.132432,0.420211,21.900589
12310,2243,0.593762,8.121132,-2.597709,-0.469773,-0.218766,0.474836,21.90353
12320,2163,0.160412,7.982268,-2.60968,-0.379709,-0.291776,0.497485,21.909412
12330,2117,-0.332794,7.891289,-2.875436,-0.278187,-0.331479,0.513473,21.885881
12340,2134,-0.833182,7.862558,-3.141193,-0.234221,-0.358658,0.513473,21.88294
12350,2131,-1.005565,7.893683,-3.339911,-0.189988,-0.361856,0.476968,21.897648
12360,2256,-0.948104,7.85777,-3.41892,-0.151884,-0.332812,0.421011,21.912354
12370,2288,-0.641646,7.546524,-3.071761,-0.147087,-0.302435,0.382107,21.906471
12380,2102,-0.277727,6.962338,-2.65517,-0.20491,-0.262199,0.359724,21.900589
12390,2313,-0.189142,6.442797,-2.442086,-0.32242,-0.179596,0.338674,21.900589
12400,4095,-0.258574,6.466739,-2.298434,-0.436998,-0.098325,0.333877,21.894707
12410,4095,-0.251391,7.038953,-2.006341,-0.542784,-0.013323,0.379176,21.900589
12420,4095,-0.083797,7.941567,-1.855506,-0.654698,0.069547,0.403158,21.906471
12430,1269,-0.026336,8.999804,-1.594538,-0.731173,0.13856,0.342404,21.897648
12440,1262,-0.079009,9.900024,-1.685518,-0.733305,0.185724,0.231023,21.909412
12450,1040,-0.102951,10.402806,-1.946486,-0.700796,0.225161,0.123905,21.912354
12460,854,-0.047884,10.685322,-2.310405,-0.692802,0.228092,0.036239,21.906471
12470,1058,0.172383,11.142614,-2.592921,-0.698665,0.174799,-0.033041,21.900589
12480,1227,0.54109,11.714828,-2.636016,-0.702395,0.071412,-0.088199,21.900589
12490,1300,1.134852,12.27986,-2.880225,-0.712787,-0.020784,-0.161743,21.915295
12500,1520,1.975216,12.847286,-2.928109,-0.699464,-0.059688,-0.232622,21.927059
12510,1719,2.748544,13.239936,-2.705448,-0.650435,-0.195051,-0.263531,21.912354
12520,1626,3.136404,13.158532,-2.470816,-0.605403,-0.380242,-0.294441,21.909412
12530,1378,3.095703,12.952631,-2.037466,-0.593678,-0.497485,-0.402092,21.906471
12540,1220,2.841918,13.024457,-1.467646,-0.610199,-0.523066,-0.579289,21.900589
12550,1152,2.406173,13.18008,-0.737414,-0.627519,-0.430337,-0.756221,21.900589
12560,1101,1.932121,13.249513,0.265756,-0.592613,-0.224095,-0.892916,21.909412
12570,1431,1.723825,13.244724,0.667982,-0.440196,0.023449,-0.971256,21.912354
12580,1690,1.924938,13.036428,0.723049,-0.232622,0.367185,-0.993639,21.921177
12590,1777,2.60968,12.564771,0.835576,-0.009593,0.775672,-0.977384,21.918236
12600,1852,3.952827,11.920731,0.737414,0.27419,1.116744,-0.945942,21.897648
12610,1879,5.90889,11.15698,0.622492,0.573694,1.293675,-0.916098,21.918236
12620,1937,8.032547,10.426748,0.64404,0.742631,1.127403,-0.87,21.909412
12630,1984,9.895236,10.036493,0.114922,0.750358,0.357593,-0.812178,21.909412
12640,1931,10.417171,10.328587,-0.42138,0.600074,-0.850815,-0.742631,21.897648
12650,1989,9.078813,11.109096,-1.161188,0.398628,-1.920662,-0.633648,21.897648
12660,2327,6.215348,11.896789,-1.642422,0.230757,-2.483164,-0.407155,21.906471
12670,2643,3.380613,12.107478,-2.281674,0.111914,-2.538055,-0.125504,21.906471
12680,2734,1.074997,12.382812,-2.430115,0.030377,-2.329681,0.043433,21.90353
12690,2191,-0.943315,13.215993,-2.597709,0.005063,-2.117844,0.107384,21.885881
12700,973,-2.286463,14.123396,-3.040636,0.075942,-1.8703,0.127103,21.894707
12710,421,-3.019088,14.235924,-2.77488,0.30883,-1.441296,0.124971,21.894707
12720,98,-3.196259,13.350069,-2.468422,0.677348,-0.874796,0.063418,21.90353
12730,395,-2.961627,11.930307,-2.643199,0.978184,-0.357326,-0.056224,21.894707
12740,558,-2.707842,10.350134,-2.880225,1.096493,0.030377,-0.126836,21.906471
12750,545,-2.39899,8.863335,-2.719813,1.102355,0.34427,-0.145489,21.915295
12760,581,-2.003947,7.66384,-2.530671,1.104753,0.605136,-0.13936,21.897648
12770,880,-1.527501,6.53617,-2.312799,1.140992,0.776738,-0.149485,21.918236
12780,1114,-1.158794,5.482722,-2.348712,1.11781,0.852946,-0.215835,21.915295
12790,1477,-0.833182,4.817134,-2.425326,1.012557,0.896913,-0.28325,21.909412
12800,1489,-0.325611,4.405331,-2.552219,0.892916,0.930487,-0.310695,21.912354
12810,1743,0.07422,4.218584,-2.537854,0.781534,0.923825,-0.308031,21.921177
12820,1748,0.40462,4.177882,-2.437297,0.696266,0.870266,-0.255271,21.93
12830,1814,0.581791,4.048595,-2.360683,0.592346,0.794858,-0.170003,21.921177
12840,1839,0.761356,3.945644,-2.466028,0.436199,0.70959,-0.104453,21.927059
12850,1744,0.778116,4.1707,-2.647987,0.281917,0.590481,-0.07834,21.909412
12860,1671,0.59855,4.560954,-2.798822,0.163874,0.474303,-0.049296,21.915295
12870,1491,0.263362,4.754885,-2.904167,0.054358,0.415149,-0.019452,21.912354
12880,1217,-0.040701,4.838682,-3.007117,-0.054092,0.400227,-0.021317,21.918236
12890,1344,-0.205901,4.946421,-3.069367,-0.166806,0.394631,-0.025047,21.921177
12900,1258,-0.25618,5.149928,-3.040636,-0.278986,0.335743,-0.034107,21.938824
12910,1470,-0.380678,5.489904,-3.126827,-0.370116,0.193985,-0.040236,21.935883
12920,1904,-0.548272,5.920861,-3.378219,-0.422876,0.036772,-0.047697,21.93
12930,2084,-0.749385,6.50744,-3.636792,-0.43007,-0.036772,-0.084735,21.915295
12940,2320,-0.924162,7.022193,-3.737349,-0.386903,0.014389,-0.144689,21.909412
12950,2327,-0.969652,7.429208,-3.711013,-0.343204,0.17027,-0.204643,21.909412
12960,2223,-0.684742,7.989451,-3.904943,-0.307231,0.29977,-0.246744,21.921177
12970,2134,-0.181959,8.662222,-4.261679,-0.28325,0.339207,-0.286181,21.915295
12980,2105,0.332794,9.598354,-4.304775,-0.301103,0.423142,-0.290444,21.912354
12990,2112,0.744597,10.886436,-3.483563,-0.355994,0.666956,-0.258202,21.915295
13000,2044,1.465251,12.306197,-2.669535,-0.517737,0.972855,-0.128435,21.921177
13010,2011,2.590526,14.377181,-3.052607,-0.455118,1.047464,0.114312,21.909412
13020,1967,3.251326,16.053122,-4.390966,-0.176132,0.722646,0.404224,21.891766
13030,2032,2.731784,16.086641,-5.114015,-0.028511,0.329348,0.618726,21.924118
13040,2082,1.343147,14.891934,-5.662287,0.069547,0.081271,0.731972,21.918236
13050,1843,0.04549,13.328521,-5.370194,0.330147,-0.113779,0.748227,21.915295
13060,2402,-0.926556,10.934319,-5.116409,0.671219,-0.332279,0.618726,21.915295
13070,4095,-1.441309,8.394072,-5.415684,0.812444,-0.518003,0.355727,21.918236
13080,4095,-1.412579,7.426814,-4.477157,0.86094,-0.560637,0.029577,21.906471
13090,2770,-1.233014,7.699753,-3.608062,0.954202,-0.421011,-0.246211,21.909412
13100,1359,-0.85473,8.702923,-3.387795,0.953136,-0.136162,-0.445259,21.90353
13110,1925,-0.342371,10.802638,-3.512294,0.881991,0.18679,-0.515338,21.932941
13120,1954,0.591368,13.522451,-3.785233,0.676815,0.530527,-0.472971,21.906471
13130,2047,2.331953,16.381128,-3.562572,0.407688,1.018952,-0.417014,21.897648
13140,2185,4.213795,18.06904,-4.060566,0.271792,1.405856,-0.297372,21.918236
13150,2192,5.62398,16.879122,-5.073313,0.278187,1.391734,-0.056224,21.909412
13160,2115,6.411672,13.814544,-4.053383,0.473504,0.875596,0.206775,21.909412
13170,1898,5.171476,10.070012,-4.285621,0.710655,0.091663,0.372781,21.906471
13180,1652,2.868254,7.041347,-3.751714,0.669087,-0.424208,0.431669,21.915295
13190,1616,0.960075,5.664681,-2.319981,0.528928,-0.550511,0.368784,21.912354
13200,1783,-0.596156,5.655105,-1.891419,0.462046,-0.369317,0.23955,21.935883
13210,1787,-1.388637,6.47871,-1.850718,0.500417,-0.072478,0.127902,21.932941
13220,1525,-1.505953,7.484274,-1.697489,0.567832,0.221164,0.027979,21.921177
13230,1485,-1.54426,8.099585,-1.448492,0.527596,0.541985,-0.070879,21.906471
13240,1486,-1.319205,8.324639,-1.66397,0.303767,1.028279,-0.101522,21.915295
13250,1260,-0.270545,8.657434,-1.584962,0.041568,1.512707,-0.047963,21.909412
13260,1296,1.594538,9.095572,-1.568202,-0.161476,1.761317,0.014389,21.927059
13270,1687,3.440468,9.825804,-1.740585,-0.366386,1.806616,0.090597,21.93
13280,2102,4.936844,10.869676,-2.027889,-0.532658,1.59691,0.160677,21.921177
13290,2256,6.153099,11.791444,-1.980005,-0.494021,1.057856,0.175332,21.93
13300,2423,6.090849,11.774684,-2.061408,-0.373047,0.366919,0.151617,21.924118
13310,2525,5.267244,10.323798,-1.819593,-0.369317,-0.124704,0.123639,21.93
13320,2411,4.450821,8.386889,-1.66397,-0.461779,-0.417547,0.056224,21.93
13330,2334,3.667917,7.141904,-1.61848,-0.600873,-0.619792,0.005063,21.93
13340,2225,3.090914,6.80911,-1.78368,-0.71332,-0.785798,0.040502,21.921177
13350,2074,2.60968,7.149086,-1.857901,-0.794858,-0.929954,0.081005,21.918236
13360,2189,2.140416,7.627927,-1.78368,-0.799121,-1.005896,0.126836,21.912354
13370,2363,1.692701,7.70933,-1.625663,-0.743963,-1.05759,0.221963,21.912354
13380,2477,1.165976,7.381324,-1.726219,-0.728508,-1.07411,0.345335,21.918236
13390,2179,0.562637,6.971915,-1.623269,-0.749026,-1.018952,0.456983,21.924118
13400,1467,0.229843,6.658275,-1.685518,-0.754089,-0.881724,0.532925,21.915295
13410,1268,0.095768,6.701371,-1.752556,-0.788462,-0.737568,0.512674,21.93
13420,1553,0.043096,7.141904,-1.90339,-0.807648,-0.621124,0.486827,21.932941
13430,1733,0.100556,7.659051,-2.027889,-0.76528,-0.521467,0.476168,21.938824
13440,2070,0.265756,7.960721,-2.166753,-0.673884,-0.449789,0.47457,21.924118
13450,2338,0.399832,8.269572,-2.257732,-0.581954,-0.399427,0.488159,21.93
13460,2414,0.342371,8.334216,-2.260126,-0.512407,-0.396763,0.539054,21.93
13470,2320,0.153229,8.288726,-2.367866,-0.440995,-0.431669,0.583286,21.932941
13480,2199,-0.368707,8.204929,-2.463634,-0.385038,-0.462046,0.609666,21.927059
13490,2261,-0.905008,8.212111,-2.614468,-0.30883,-0.477767,0.619259,21.935883
13500,2487,-1.302446,8.238448,-2.772485,-0.222763,-0.456983,0.597942,21.93
13510,2755,-1.61848,8.271967,-3.129222,-0.143357,-0.407688,0.5649,21.921177
13520,2812,-1.587356,8.075643,-3.531447,-0.105519,-0.344536,0.513473,21.927059
13530,2900,-1.364695,7.716512,-3.660734,-0.117243,-0.254738,0.438331,21.915295
13540,2928,-0.938527,7.295133,-3.507505,-0.14389,-0.158545,0.367452,21.924118
13550,2950,-0.624887,6.933608,-3.397372,-0.200113,-0.072478,0.322153,21.921177
13560,2986,-0.617704,6.864176,-3.3447,-0.305899,-0.014389,0.324285,21.924118
13570,2785,-0.68953,7.278373,-3.028665,-0.427139,0.059421,0.348799,21.924118
13580,2446,-0.696713,8.018182,-2.494758,-0.494288,0.171335,0.357859,21.921177
13590,2110,-0.550666,8.62152,-2.252944,-0.525997,0.269394,0.32242,21.927059
13600,1655,-0.390255,9.038112,-2.434903,-0.558239,0.340006,0.225694,21.932941
13610,1239,-0.208296,9.428367,-2.624045,-0.614729,0.400493,0.140692,21.932941
13620,1023,-0.023942,9.880871,-2.63841,-0.682943,0.431403,0.073544,21.924118
13630,983,0.280122,10.316615,-2.798822,-0.723979,0.418613,0.023182,21.941765
13640,1104,0.715866,10.769119,-2.889802,-0.731173,0.367985,-0.02638,21.927059
13650,1411,1.21386,11.190498,-2.679112,-0.738634,0.241149,-0.068214,21.921177
13660,1631,2.13084,11.587936,-2.834735,-0.789262,0.118576,-0.115911,21.927059
13670,1958,3.08852,12.179304,-2.552219,-0.816974,0.03011,-0.172934,21.935883
13680,2079,3.684676,12.715605,-2.267309,-0.784998,-0.154548,-0.189721,21.938824
13690,1827,4.141969,12.840104,-2.051831,-0.745296,-0.366652,-0.210772,21.944706
13700,1385,4.548983,12.943054,-1.606509,-0.720515,-0.576358,-0.297106,21.924118
13710,865,4.556166,13.22557,-0.85473,-0.720781,-0.767678,-0.448989,21.924118
13720,141,3.706224,13.457808,-0.035913,-0.716251,-0.877461,-0.593412,21.938824
13730,1663,2.753332,13.445837,0.442927,-0.655231,-0.829231,-0.703727,21.921177
13740,4095,1.922544,13.388376,0.402226,-0.511608,-0.60407,-0.811645,21.924118
13750,3698,1.517924,13.165715,0.454898,-0.337608,-0.178263,-0.863072,21.927059
13760,406,1.702277,12.811374,0.251391,-0.082603,0.320821,-0.879859,21.921177
13770,1035,2.592921,12.294226,-0.007183,0.257403,0.737835,-0.892916,21.938824
13780,1105,4.197036,11.647791,-0.009577,0.621923,0.944876,-0.871599,21.924118
13790,1036,6.119579,10.85531,-0.691924,0.882257,0.858542,-0.808714,21.918236
13800,1342,7.920019,10.005369,-1.197101,0.831363,0.404224,-0.769277,21.93
13810,1463,8.53054,10.101137,-1.089362,0.603271,-0.466043,-0.740233,21.927059
13820,1583,7.627927,10.783484,-1.517924,0.406355,-1.324585,-0.619792,21.924118
13830,1909,5.48751,11.331757,-2.008735,0.329614,-1.778904,-0.412217,21.959412
13840,2227,3.153164,11.264719,-2.600103,0.263531,-1.859908,-0.164141,21.938824
13850,2277,1.146823,11.15698,-2.8491,0.139893,-1.731207,-0.017054,21.938824
13860,2326,-0.811634,11.75553,-2.810793,0.071945,-1.510576,0.024781,21.944706
13870,2067,-2.260126,12.471396,-2.96881,0.133764,-1.275289,0.054625,21.947647
13880,1821,-2.937685,12.600683,-2.873042,0.336809,-0.963528,0.074876,21.941765
13890,1570,-3.107674,12.054806,-2.585738,0.604603,-0.516671,0.03917,21.944706
13900,1457,-2.748544,11.121067,-2.63841,0.822303,-0.02185,-0.051427,21.935883
13910,1424,-2.178724,10.132261,-2.72939,0.942211,0.373314,-0.139093,21.944706
13920,1145,-1.510741,8.985439,-2.669535,1.005097,0.629651,-0.174533,21.932941
13930,1264,-0.938527,7.726089,-2.516306,1.037072,0.794591,-0.17773,21.912354
13940,1719,-0.411803,6.550536,-2.533065,1.018686,0.889185,-0.202245,21.921177
13950,2169,-0.004788,5.695806,-2.545036,0.966193,0.9129,-0.265397,21.93
13960,2464,0.428562,5.046977,-2.542642,0.899311,0.9137,-0.319222,21.935883
13970,2725,0.826,4.67827,-2.576161,0.799654,0.877994,-0.341605,21.932941
13980,2989,1.096544,4.668694,-2.557007,0.704527,0.777538,-0.320021,21.935883
13990,3003,1.182736,4.721366,-2.501941,0.623256,0.630983,-0.240083,21.941765
14000,2535,1.079785,4.836287,-2.578555,0.496686,0.488959,-0.182527,21.941765
14010,2244,0.675165,5.102044,-2.631228,0.322686,0.404224,-0.170536,21.950588
14020,2237,0.287304,5.331887,-2.844312,0.162009,0.379975,-0.122839,21.935883
14030,2047,0.098162,5.355829,-2.935291,0.031443,0.391966,-0.067415,21.927059
14040,1870,0.007183,5.334281,-3.050213,-0.079139,0.416747,-0.049562,21.932941
14050,1696,-0.11971,5.480328,-3.071761,-0.17773,0.431936,-0.057023,21.938824
14060,1797,-0.304064,5.647922,-3.119645,-0.260067,0.415948,-0.057556,21.924118
14070,1765,-0.497994,5.875371,-3.265691,-0.331213,0.363455,-0.046897,21.941765
14080,1914,-0.617704,6.169858,-3.471592,-0.36985,0.282184,-0.037571,21.959412
14090,2070,-0.76375,6.562507,-3.653552,-0.349865,0.206242,-0.053292,21.950588
14100,2134,-0.88346,6.979098,-3.720589,-0.274989,0.170536,-0.098058,21.944706
14110,2131,-0.981623,7.311892,-3.682282,-0.189721,0.199047,-0.153749,21.944706
14120,2107,-1.034295,7.687782,-3.699042,-0.136162,0.259801,-0.195583,21.935883
14130,2067,-0.466869,8.066066,-3.950433,-0.075675,0.2614,-0.237951,21.941765
14140,2064,-0.095768,8.659827,-4.077325,-0.039703,0.269394,-0.271259,21.93
14150,2096,0.270545,9.349358,-3.852271,-0.06475,0.388502,-0.285648,21.932941
14160,2139,0.555455,10.070012,-3.375824,-0.164407,0.6523,-0.259534,21.938824
14170,2098,1.249773,10.900801,-2.571373,-0.404224,0.996303,-0.187856,21.935883
14180,2135,2.142811,12.868834,-2.063802,-0.461779,1.119142,0.004263,21.927059
14190,2331,3.114856,14.654908,-3.095703,-0.266995,0.746628,0.293375,21.938824
14200,2537,2.60968,15.014039,-4.79798,-0.12577,0.205709,0.535057,21.938824
14210,2747,0.955287,13.989321,-6.121974,-0.058355,-0.086067,0.693602,21.941765
14220,2901,-0.560243,12.557588,-6.093243,0.158279,-0.153749,0.694401,21.947647
14230,2837,-1.376666,10.529699,-5.858612,0.474037,-0.255271,0.548913,21.950588
14240,2661,-1.458069,8.860941,-5.233725,0.684542,-0.370916,0.252873,21.950588
14250,2335,-1.21386,8.686164,-3.545813,0.832429,-0.368784,-0.0874,21.950588
14260,2035,-0.754174,9.263166,-2.674323,0.907038,-0.210772,-0.365587,21.95647
14270,1914,-0.253785,10.711658,-2.815581,0.828965,0.11751,-0.531593,21.959412
14280,1648,0.701501,13.393165,-3.251326,0.648303,0.405289,-0.523332,21.941765
14290,1446,2.461239,16.622942,-3.557784,0.453786,0.678946,-0.425008,21.941765
14300,1472,4.436456,19.232622,-3.976769,0.285381,1.150585,-0.290977,21.941765
14310,1589,6.370971,19.069817,-4.256891,0.270726,1.335243,-0.014655,21.947647
14320,1712,7.484274,15.574282,-4.441244,0.401559,1.007228,0.279519,21.944706
14330,1842,6.67264,11.27669,-4.096479,0.623256,0.267262,0.458049,21.935883
14340,1916,4.139575,7.668628,-4.089296,0.734104,-0.449789,0.525198,21.941765
14350,1798,1.850718,5.465962,-2.880225,0.633648,-0.746628,0.484429,21.932941
14360,1758,0.227449,4.994305,-1.654393,0.499617,-0.642708,0.374646,21.947647
14370,1489,-0.909797,5.573701,-1.405396,0.455651,-0.387703,0.292043,21.953529
14380,822,-1.292869,6.603208,-1.414973,0.51294,-0.083136,0.215568,21.968235
14390,2022,-1.216254,7.603985,-1.261744,0.57849,0.241415,0.112714,21.95647
14400,4095,-0.931344,8.154651,-1.218649,0.50468,0.614995,0.030377,21.953529
14410,4095,-0.201113,8.329428,-1.398214,0.289911,1.077841,0.023715,21.935883
14420,645,1.417367,8.566454,-1.309628,0.046897,1.470873,0.06928,21.944706
14430,1310,3.548207,9.040505,-1.608904,-0.191054,1.608101,0.128168,21.950588
14440,1966,5.363012,9.91439,-2.092532,-0.472438,1.477268,0.206242,21.947647
14450,1866,6.813898,10.867282,-2.296039,-0.595011,1.047997,0.259268,21.950588
14460,1616,7.165846,11.547235,-2.351106,-0.488159,0.287247,0.223562,21.938824
14470,1659,6.378153,10.967838,-2.396596,-0.373847,-0.359724,0.210239,21.941765
14480,1671,5.190629,9.356541,-2.164358,-0.38344,-0.807115,0.176132,21.944706
14490,1296,4.252102,7.771579,-1.841141,-0.513473,-1.06505,0.120974,21.944706
14500,1323,3.567361,6.964733,-1.848324,-0.661626,-1.261167,0.116977,21.941765
14510,1579,3.10528,6.936002,-2.001553,-0.769011,-1.443694,0.159877,21.947647
14520,1617,2.470816,7.398083,-1.99437,-0.8263,-1.592646,0.191853,21.953529
14530,1908,1.577779,7.625533,-1.865083,-0.796723,-1.66992,0.248876,21.962353
14540,2699,0.876278,7.376535,-1.78368,-0.730374,-1.624888,0.356793,21.959412
14550,3484,0.493206,6.902483,-1.766921,-0.714386,-1.509776,0.450055,21.95647
14560,3794,0.019154,6.569689,-1.774103,-0.750092,-1.376012,0.493755,21.95647
14570,3127,-0.40462,6.687006,-2.020706,-0.796723,-1.223596,0.536655,21.950588
14580,2723,-0.581791,7.299921,-2.020706,-0.829498,-1.040003,0.575559,21.959412
14590,2480,-0.471658,7.927202,-2.11408,-0.775406,-0.856677,0.585685,21.947647
14600,2427,-0.217872,8.312668,-2.3535,-0.68321,-0.703727,0.572894,21.950588
14610,2503,-0.031125,8.475474,-2.468422,-0.598208,-0.632315,0.540652,21.950588
14620,2449,0,8.59279,-2.822764,-0.51827,-0.556907,0.570763,21.935883
14630,2395,0.122104,8.429984,-2.748544,-0.466309,-0.494288,0.64777,21.962353
14640,2445,0.076614,8.274361,-2.908955,-0.41728,-0.498818,0.674949,21.959412
14650,2611,-0.280122,8.197746,-3.052607,-0.368251,-0.496953,0.666423,21.95647
14660,2686,-0.802058,8.06846,-3.184288,-0.288845,-0.466043,0.664291,21.968235
14670,2716,-1.18513,7.90326,-3.62961,-0.206508,-0.403957,0.662959,21.959412
14680,2798,-1.261744,7.762002,-3.58412,-0.151084,-0.349332,0.63951,21.944706
14690,2825,-1.175553,7.742848,-3.617639,-0.088732,-0.395164,0.590214,21.941765
14700,2880,-1.029507,7.522582,-3.471592,-0.07381,-0.455384,0.549979,21.95647
14710,2928,-0.969652,7.244854,-3.169923,-0.108184,-0.496153,0.538787,21.965294
14720,2785,-0.90022,6.938396,-2.992752,-0.206242,-0.465243,0.543583,21.95647
14730,2547,-1.053449,6.995857,-3.064578,-0.312028,-0.395697,0.516138,21.941765
14740,2295,-1.312023,7.505822,-3.241749,-0.389835,-0.283783,0.486827,21.944706
14750,2035,-1.30484,8.236053,-3.246537,-0.435133,-0.080205,0.448723,21.965294
14760,1775,-0.914585,8.987833,-2.995146,-0.465776,0.176132,0.365853,21.965294
14770,1460,-0.265756,9.595961,-2.430115,-0.464444,0.359191,0.270459,21.953529
14780,1183,0.268151,9.701305,-2.267309,-0.462312,0.41808,0.193718,21.953529
14790,955,0.471658,9.607931,-2.413355,-0.529727,0.41728,0.1303,21.962353
14800,912,0.565032,9.643845,-2.595315,-0.631783,0.425008,0.077008,21.968235
14810,926,0.746991,9.878476,-2.537854,-0.725044,0.42634,0.020518,21.968235
14820,1072,1.043872,10.175357,-2.365471,-0.781002,0.385571,-0.031443,21.962353
14830,1345,1.335965,10.522516,-2.197877,-0.811112,0.270726,-0.072478,21.947647
14840,1535,1.723825,10.766725,-2.430115,-0.85641,0.072211,-0.105253,21.959412
14850,1691,2.533065,10.996569,-3.066972,-0.911302,-0.057556,-0.158279,21.95647
14860,1621,3.32794,11.643003,-2.930503,-0.919828,-0.243813,-0.20038,21.959412
14870,1412,3.945644,12.337321,-2.58095,-0.908104,-0.564368,-0.229424,21.968235
14880,1360,3.792415,13.019669,-2.305616,-0.887853,-0.860674,-0.320021,21.968235
14890,1231,2.913743,13.618219,-1.927332,-0.846818,-0.990175,-0.451387,21.977058
14900,1088,1.865083,14.018051,-1.261744,-0.811645,-0.965926,-0.581155,21.968235
14910,1136,1.000776,14.039598,-0.533907,-0.76608,-0.798322,-0.711188,21.962353
14920,1039,0.318429,13.745112,0,-0.627519,-0.464977,-0.8263,21.977058
14930,848,0.263362,13.15135,0.675165,-0.388769,-0.073011,-0.919828,21.965294
14940,749,0.651223,12.2224,0.984017,-0.179596,0.356793,-0.986977,21.962353
14950,895,1.316811,11.257536,0.663194,0.060221,0.833761,-1.013357,21.971176
14960,944,2.643199,10.333375,0.545878,0.348533,1.262766,-1.014956,21.95647
14970,1204,4.675876,9.694122,0.543484,0.642441,1.475136,-1.025348,21.971176
14980,1606,7.026982,9.394848,0.265756,0.807115,1.332845,-0.983513,21.98
14990,1535,9.07163,9.662998,-0.201113,0.733571,0.654165,-0.897712,21.977058
15000,1149,9.569624,10.761936,-0.459687,0.522266,-0.425274,-0.780202,21.968235
15010,931,8.418014,12.071565,-0.869095,0.375446,-1.43117,-0.630717,21.962353
15020,1687,6.019023,12.825739,-1.264138,0.285648,-2.028046,-0.41808,21.968235
15030,2893,3.65834,12.770672,-1.939303,0.16041,-2.240417,-0.167871,21.968235
15040,2891,1.606509,12.636597,-2.877831,-0.014389,-2.21457,0.026113,21.974117
15050,4095,-0.342371,13.069947,-3.483563,-0.150018,-2.002465,0.113779,21.98
15060,4095,-1.939303,13.771448,-3.296816,-0.062352,-1.603571,0.140692,21.959412
15070,4095,-2.844312,13.996503,-3.114856,0.223296,-1.146055,0.101522,21.950588
15080,2656,-3.177106,13.235147,-3.277662,0.546781,-0.630184,0.030377,21.968235
15090,1507,-3.181894,11.920731,-3.495534,0.810845,-0.073277,-0.074343,21.982941
15100,1850,-3.078943,10.584765,-3.380613,0.979516,0.455651,-0.160677,21.971176
15110,1488,-2.913743,9.279925,-2.94008,1.093828,0.9129,-0.201979,21.962353
15120,1102,-2.561796,7.908048,-2.590526,1.158312,1.27449,-0.207574,21.971176
15130,1246,-1.958457,6.727707,-2.310405,1.168172,1.542551,-0.219565,21.971176
15140,1513,-1.249773,5.83467,-2.102109,1.145522,1.675516,-0.258469,21.968235
15150,1617,-0.45011,5.238513,-2.092532,1.095694,1.706426,-0.33521,21.959412
15160,1535,0.052672,4.783615,-2.171541,1.03947,1.684043,-0.386637,21.974117
15170,1596,0.474052,4.218584,-2.193089,0.950738,1.641675,-0.389835,21.953529
15180,1248,0.76375,3.804387,-2.090138,0.805782,1.589715,-0.369051,21.965294
15190,1119,0.797269,3.586514,-2.013524,0.610199,1.531626,-0.285381,21.950588
15200,902,1.146823,3.426103,-2.051831,0.429271,1.453553,-0.207041,21.950588
15210,586,1.410185,3.687071,-2.181118,0.266995,1.360291,-0.224628,21.959412
15220,290,1.211466,4.213795,-2.286463,0.152417,1.242781,-0.259801,21.959412
15230,266,0.962469,4.539406,-2.442086,0.079939,1.150052,-0.270726,21.962353
15240,482,0.804452,4.730943,-2.540248,0.012257,1.077041,-0.287779,21.962353
15250,641,0.636858,4.838682,-2.616863,-0.070879,0.977917,-0.303234,21.959412
15260,703,0.502782,4.972757,-2.715025,-0.176665,0.833495,-0.318423,21.98
15270,927,0.366313,5.243302,-2.873042,-0.27792,0.637911,-0.335476,21.968235
15280,1181,0.229843,5.643134,-3.213019,-0.345868,0.440995,-0.36079,21.965294
15290,1418,0.004788,6.078878,-3.454833,-0.368518,0.316557,-0.392766,21.95647
15300,1532,-0.11971,6.440403,-3.591303,-0.385305,0.252606,-0.421011,21.971176
15310,1425,-0.07422,6.900089,-3.86903,-0.42181,0.19132,-0.428205,21.982941
15320,1343,-0.07422,7.486669,-4.271256,-0.45725,0.115378,-0.449789,21.98
15330,1339,-0.107739,8.540117,-4.81474,-0.479366,0.09939,-0.455118,21.965294
15340,1185,-0.141258,10.120291,-4.659117,-0.478833,0.281651,-0.462845,21.947647
15350,1168,-0.433351,11.68131,-3.665523,-0.546515,0.831363,-0.436998,21.959412
15360,1039,-0.057461,13.560759,-2.236184,-0.68694,1.368818,-0.289378,21.95647
15370,1040,1.264138,15.773001,-2.578555,-0.583819,1.291544,-0.005063,21.947647
15380,1280,2.133234,17.144878,-3.919308,-0.420211,0.936882,0.298172,21.965294
15390,1535,1.900996,17.044321,-4.525041,-0.27792,0.694135,0.560371,21.968235
15400,1813,1.180341,15.617377,-5.480328,-0.028245,0.532126,0.716784,21.968235
15410,1880,0.533907,13.251906,-6.270414,0.254738,0.349865,0.751691,21.968235
15420,1712,0.076614,10.730812,-6.066907,0.481498,0.113247,0.66056,21.971176
15430,1611,-0.19393,8.599973,-5.571307,0.613663,-0.167072,0.468175,21.962353
15440,1460,-0.263362,7.560889,-4.654328,0.692003,-0.404757,0.216101,21.962353
15450,1513,-0.407014,8.087613,-3.313575,0.849216,-0.444992,-0.027979,21.959412
15460,1691,-0.445322,9.301474,-3.10528,1.003231,-0.250208,-0.20411,21.977058
15470,1519,-0.502782,11.125855,-3.241749,1.077308,0.112714,-0.223562,21.968235
15480,1472,0.186748,13.371616,-3.306392,1.063718,0.470306,-0.179596,21.971176
15490,1491,1.343147,15.782578,-3.332729,0.875862,0.679746,-0.101522,21.959412
15500,1438,3.785233,17.568651,-3.263297,0.591813,0.87906,-0.077008,21.959412
15510,1424,5.774815,18.078617,-3.040636,0.505479,0.959531,-0.113513,21.953529
15520,1530,6.473921,15.782578,-3.210624,0.660294,0.735436,0.015988,21.953529
15530,1663,5.822699,11.077971,-3.859453,0.729841,0.191587,0.266729,21.965294
15540,1820,4.503493,6.715736,-2.985569,0.546781,-0.367718,0.477234,21.971176
15550,1739,2.784456,4.548983,-2.434903,0.355461,-0.553176,0.464711,21.971176
15560,1721,1.352724,4.790798,-2.054225,0.379176,-0.454052,0.355461,21.971176
15570,1623,0.574608,5.911284,-1.079785,0.614995,-0.460714,0.249142,21.962353
15580,1389,-0.232238,6.624756,-1.144428,0.746894,-0.328815,0.167605,21.968235
15590,1363,-0.56982,7.290344,-0.957681,0.681345,-0.070613,0.089265,21.959412
15600,1343,-0.107739,8.568848,-1.278504,0.442061,0.325084,0.111115,21.962353
15610,1097,1.814805,9.765948,-1.247379,0.105253,0.842554,0.372781,21.962353
15620,1225,3.541024,9.701305,-1.142034,-0.177464,0.996303,0.60487,21.962353
15630,1168,4.07972,9.411607,-1.419762,-0.460447,0.809247,0.672551,21.971176
15640,949,4.359841,9.715671,-1.908179,-0.662959,0.671485,0.664291,21.977058
15650,923,4.829105,10.340557,-2.243367,-0.655764,0.50015,0.597675,21.950588
15660,893,5.32231,10.611102,-2.391808,-0.578757,0.099657,0.536655,21.959412
15670,1062,5.169082,10.563218,-2.343924,-0.563035,-0.341605,0.472171,21.968235
15680,1511,4.493917,10.053253,-2.082955,-0.653366,-0.678413,0.379975,21.991764
15690,1520,3.663129,9.813833,-2.063802,-0.851614,-1.020018,0.251807,21.985882
15700,1391,2.391808,8.978256,-2.226608,-0.789795,-1.166306,0.012524,21.971176
15710,4095,1.944092,8.386889,-2.32477,-0.90091,-1.163642,0.007994,21.962353
15720,4095,2.427721,5.98311,-1.831564,-1.011492,-1.26996,0.242214,21.953529
15730,3845,1.39582,6.038177,-1.872266,-1.050662,-1.477268,0.151884,21.965294
15740,1350,-9.916783,22.886173,-4.577713,-1.176432,-1.361623,0.690937,21.982941
15750,2382,-0.299275,9.425972,-1.690306,0.023182,-0.471106,0.322153,21.988823
15760,2731,0.160412,3.145981,-2.377442,-0.083403,-0.07381,-0.270459,21.982941
15770,2509,0.835576,2.243367,-0.952892,-0.57396,-0.273657,0.063418,21.974117
15780,2771,0.950498,2.47321,-0.78051,-0.714919,-0.379709,0.320554,21.982941
15790,2710,0.993594,3.325546,-1.218649,-0.81724,-0.337874,0.468974,21.962353
15800,2608,1.673547,4.60405,-1.455675,-0.930487,-0.326417,0.62592,21.962353
15810,2832,2.48997,5.540183,-1.956063,-1.018952,-0.459381,0.759685,21.982941
15820,2782,2.413355,6.287174,-2.748544,-1.041335,-0.675749,0.822303,21.982941
15830,2733,0.150835,7.254431,-3.605668,-1.087966,-0.661626,0.761017,21.985882
15840,2531,-1.960851,10.220847,-3.040636,-1.163109,-0.402891,0.654165,21.977058
15850,2641,-0.550666,12.435484,-2.035071,-0.895047,-0.413017,0.770876,21.98
15860,2624,1.587356,11.915942,-2.504335,-0.366119,-0.824968,0.870533,21.977058
15870,2448,0.550666,10.271125,-3.531447,-0.106319,-1.171636,0.806315,21.982941
15880,2389,-1.055843,9.109938,-3.500323,-0.081804,-1.257969,0.778337,21.98
15890,2578,-1.505953,8.295909,-3.888184,-0.075409,-1.289412,0.779936,21.985882
15900,2402,-1.690306,7.515399,-3.457227,-0.016521,-1.229991,0.671752,21.965294
15910,2321,-1.881842,6.739678,-2.89459,-0.003464,-1.007228,0.536389,21.968235
15920,2305,-1.707066,6.143522,-2.952051,-0.12577,-0.678946,0.429804,21.974117
15930,2315,-1.309628,6.260838,-3.191471,-0.284848,-0.368251,0.345868,21.977058
15940,2224,-0.775721,7.156269,-3.124433,-0.406888,-0.117243,0.305899,21.962353
15950,2210,-0.059855,8.161834,-2.892196,-0.50015,0.068747,0.307231,21.959412
15960,2352,0.438139,9.109938,-2.636016,-0.515072,0.184658,0.289911,21.974117
15970,2192,0.842759,9.900024,-2.602497,-0.536389,0.244879,0.325351,21.98
15980,2089,1.426944,9.921572,-2.691083,-0.579556,0.167605,0.332812,21.98
15990,2194,1.383849,9.77792,-2.779668,-0.637645,-0.026646,0.26593,21.982941
16000,2179,0.830788,9.689334,-2.89459,-0.722646,-0.212104,0.228625,21.977058
16010,1491,0.466869,9.809045,-2.980781,-0.8271,-0.322153,0.176665,21.974117
16020,1415,0.418985,10.414778,-3.10528,-0.959265,-0.405023,0.087666,21.965294
16030,1378,0.92895,11.228806,-3.507505,-1.071712,-0.318156,-0.000266,21.965294
16040,1484,1.84593,12.227188,-3.198653,-1.103688,-0.184392,-0.121507,21.962353
16050,1605,2.944868,13.10586,-2.770091,-1.125005,-0.16121,-0.228891,21.994705
16060,1664,4.043807,13.816938,-2.255338,-1.14419,-0.192119,-0.332812,21.974117
16070,1743,4.860229,14.587871,-1.848324,-1.118876,-0.23875,-0.476701,21.974117
16080,1969,4.967968,15.464149,-1.132457,-1.040003,-0.320821,-0.648037,21.991764
16090,2054,4.450821,15.919047,-0.083797,-0.952337,-0.367185,-0.797789,21.977058
16100,2442,3.643975,15.856798,0.70629,-0.815109,-0.280585,-0.94008,21.968235
16110,2721,2.975993,15.389929,1.347936,-0.554242,-0.004796,-1.03947,21.977058
16120,3446,2.96881,14.42746,1.968034,-0.208907,0.332812,-1.089299,21.977058
16130,4095,3.663129,13.158532,2.212242,0.184126,0.680812,-1.066116,21.982941
16140,4095,5.027823,11.733982,2.0231,0.620858,0.932885,-0.98298,21.985882
16150,4009,6.706159,10.204087,1.939303,1.044799,0.862539,-0.833495,21.971176
16160,3479,8.413225,8.614338,0.940921,1.375213,0.401825,-0.703994,21.977058
16170,3242,9.287108,7.714118,-0.632069,1.277688,-0.409819,-0.610466,21.968235
16180,2692,8.889671,8.037335,-0.950498,0.769544,-1.381075,-0.621657,21.988823
16190,2710,7.424419,8.810662,-0.241814,0.32162,-2.167406,-0.6094,21.994705
16200,2927,5.176264,9.483433,-0.390255,0.135363,-2.538588,-0.512674,21.977058
16210,2902,2.832341,9.718064,-1.359907,0.089265,-2.543651,-0.365853,21.98
16220,2512,0.80924,10.290278,-2.576161,0.089265,-2.38857,-0.205976,21.982941
16230,1673,-0.526724,11.437101,-3.258508,0.046098,-2.097859,-0.099124,21.971176
16240,768,-1.489193,12.844893,-3.090914,0.050361,-1.698965,-0.098325,21.98
16250,66,-2.363077,13.572729,-2.767697,0.180928,-1.263565,-0.111914,21.974117
16260,268,-2.841918,13.266272,-2.420538,0.366652,-0.779403,-0.112714,21.965294
16270,346,-3.0143,12.188881,-2.06859,0.617394,-0.31336,-0.130833,21.994705
16280,439,-3.031059,10.694899,-2.030283,0.831896,0.101256,-0.103387,21.997646
16290,349,-2.681506,9.009381,-2.126051,0.966459,0.470573,-0.005862,21.977058
16300,581,-2.111686,7.580042,-2.171541,0.981648,0.745296,0.072211,21.98
16310,610,-1.611298,6.682217,-2.274492,0.915832,0.908637,0.046897,21.98
16320,511,-1.309628,6.169858,-2.161964,0.862273,1.020551,-0.050628,21.98
16330,309,-1.09415,5.66947,-2.102109,0.886254,1.125804,-0.132165,21.988823
16340,415,-0.73502,5.087678,-2.401384,0.90917,1.236919,-0.202778,21.997646
16350,3179,-0.387861,4.608838,-2.636016,0.850282,1.334711,-0.241948,21.985882
16360,4095,0.208296,4.22816,-2.755726,0.725044,1.372815,-0.22676,21.977058
16370,1693,0.648829,4.027047,-2.650381,0.542251,1.279286,-0.206775,21.98
16380,720,0.873884,4.280833,-2.707842,0.355727,1.154582,-0.178263,21.98
16390,1666,0.893037,4.711789,-2.717419,0.188122,1.086634,-0.114845,21.98
16400,1669,0.878672,5.178658,-2.908955,0.028778,1.038937,-0.075142,21.974117
16410,1579,0.581791,5.748478,-3.011906,-0.118043,0.93102,-0.096726,21.98
16420,1646,0.373495,6.14831,-2.975993,-0.160144,0.78713,-0.207041,21.985882
16430,1658,0.11971,6.610391,-3.045424,-0.168138,0.662692,-0.299504,21.988823
16440,1947,-0.09098,6.773197,-3.122039,-0.181194,0.529994,-0.332545,21.98
16450,2141,-0.251391,6.897695,-3.244143,-0.189455,0.377311,-0.342671,21.98
16460,2143,-0.454898,7.256825,-3.287239,-0.102588,0.297372,-0.353596,21.991764
16470,2128,-0.80924,7.70933,-3.1795,0.073277,0.229158,-0.377844,22.000587
16480,2223,-0.914585,7.472303,-3.356671,0.227026,0.129234,-0.407954,22.000587
16490,2259,-0.936133,7.019799,-3.964798,0.281384,0.185191,-0.460714,21.997646
16500,2344,-0.92895,6.976704,-4.252102,0.267528,0.514539,-0.490824,21.988823
16510,2383,-0.768539,7.438785,-3.933673,0.220631,1.03121,-0.506012,22.000587
16520,2425,-0.155623,8.418014,-2.401384,0.168404,1.490058,-0.544916,21.991764
16530,2451,0.639252,9.679757,-0.967257,0.099657,1.593979,-0.539587,21.988823
16540,2610,1.331176,10.793061,-1.987187,-0.119375,1.434101,-0.3909,21.988823
16550,2384,1.905785,12.272678,-3.306392,-0.426606,1.230257,-0.135096,21.977058
16560,2038,2.358289,14.341269,-4.520253,-0.563568,0.939547,0.17027,21.968235
16570,1670,2.636016,15.634137,-4.879383,-0.389835,0.689871,0.455118,21.985882
16580,2025,2.458845,15.301343,-4.67827,0.023449,0.450055,0.565433,21.971176
16590,2406,1.793257,13.144167,-5.147533,0.413816,0.07834,0.486294,21.977058
16600,2612,0.744597,10.079589,-5.896919,0.563568,-0.351464,0.279519,21.991764
16610,2687,-0.19393,7.575254,-6.550536,0.515072,-0.614729,0.025314,21.988823
16620,2762,-0.888249,7.359776,-5.125986,0.489492,-0.571828,-0.192919,21.974117
16630,2603,-0.703895,8.647857,-3.311181,0.560904,-0.394631,-0.302701,21.985882
16640,2359,0.351948,10.852917,-2.557007,0.669354,-0.224095,-0.353862,21.988823
16650,2111,1.381454,13.872005,-2.952051,0.694401,-0.079139,-0.362389,21.991764
16660,1993,2.319981,17.226282,-4.015076,0.572894,0.17027,-0.261666,21.985882
16670,2054,3.440468,19.797653,-3.77805,0.402358,0.621657,-0.091397,21.997646
16680,2176,4.709395,19.790472,-2.676718,0.41355,1.05306,0.128701,21.988823
16690,2099,5.580884,16.596605,-3.033453,0.727709,1.186291,0.377844,21.997646
16700,1962,5.884948,11.760319,-3.519476,0.939547,0.771942,0.605403,22.012352
16710,2071,4.91769,7.814674,-2.96881,0.922493,0.155348,0.745029,21.991764
16720,2141,3.210624,5.872977,-1.814805,0.887853,-0.347734,0.763415,21.98
16730,2441,1.632846,5.24809,-1.156399,0.890251,-0.563302,0.664291,21.982941
16740,2559,0.308852,5.437232,-0.881066,0.761816,-0.468441,0.506012,21.991764
16750,2429,-0.011971,6.107608,-1.017536,0.62219,-0.227825,0.369317,21.988823
16760,2162,0.407014,6.964733,-1.127669,0.502815,0.007994,0.228625,21.982941
16770,2150,0.811634,7.740454,-1.403002,0.355194,0.315758,0.149485,21.994705
16780,2249,1.501164,8.523358,-1.429338,0.175599,0.616594,0.137228,21.982941
16790,2187,2.645593,9.251195,-1.352724,-0.041302,0.789528,0.149219,21.991764
16800,2177,3.962404,9.878476,-1.479617,-0.301636,0.822303,0.130833,21.985882
16810,2249,5.013458,10.508151,-1.872266,-0.507611,0.648303,0.122306,22.000587
16820,2027,5.875371,11.010934,-2.183512,-0.576358,0.218499,0.138028,22.00647
16830,1843,6.083666,10.96305,-2.087744,-0.567832,-0.327749,0.166273,22.015295
16840,2230,5.540183,10.060435,-1.843535,-0.583553,-0.794591,0.206242,22.000587
16850,2496,4.821922,9.030929,-1.637634,-0.666689,-1.099957,0.251541,21.994705
16860,2508,4.34787,8.149862,-1.49877,-0.791127,-1.356294,0.328015,22.000587
16870,2432,3.909731,7.874529,-1.510741,-0.907038,-1.598508,0.353063,22.000587
16880,2256,2.786851,8.099585,-1.78368,-1.008294,-1.801286,0.452453,21.985882
16890,2303,2.027889,8.101978,-1.857901,-1.005097,-1.890018,0.540386,21.988823
16900,2348,1.125275,7.841011,-1.912967,-0.928089,-1.851914,0.643773,21.994705
16910,2430,0.979228,6.981492,-1.867477,-0.820172,-1.695234,0.692003,22.000587
16920,2713,0.821211,6.184223,-2.025495,-0.756221,-1.533492,0.701063,22.015295
16930,2971,1.036689,5.612009,-1.970428,-0.785798,-1.42291,0.736236,22.000587
16940,3152,1.235408,5.671864,-2.078167,-0.867069,-1.376012,0.746628,22.000587
16950,2992,1.192312,6.198588,-2.066196,-0.931553,-1.331513,0.749026,21.997646
16960,2672,0.893037,6.926425,-2.118869,-0.94381,-1.317124,0.730107,21.988823
16970,2387,0.474052,7.687782,-2.454057,-0.921427,-1.307798,0.674683,22.000587
16980,3689,0.04549,8.441956,-3.040636,-0.834561,-1.264897,0.600873,21.994705
16990,4095,-0.282516,9.066842,-3.181894,-0.692536,-1.119142,0.597675,21.997646
17000,4095,-0.275333,9.210494,-3.110068,-0.510542,-1.027213,0.629917,21.988823
17010,4095,-0.45011,9.088389,-3.268085,-0.353063,-1.0011,0.653366,22.000587
17020,2900,-0.744597,8.882488,-3.483563,-0.223029,-0.994971,0.66509,22.000587
17030,3421,-1.21386,8.425196,-3.428497,-0.101256,-0.963262,0.669887,21.997646
17040,3889,-1.731008,8.042124,-3.507505,0.012524,-0.990974,0.650968,22.000587
17050,4042,-1.982399,7.577648,-3.543418,0.049029,-1.017354,0.616594,22.00647
17060,4057,-2.183512,7.285556,-3.289633,0.019718,-0.966193,0.585152,22.003529
17070,3710,-2.217031,6.969521,-3.13401,-0.067681,-0.803651,0.564101,22.003529
17080,3285,-2.099715,6.804321,-3.308787,-0.150285,-0.581688,0.523066,21.994705
17090,2661,-1.778892,7.060501,-3.651158,-0.202245,-0.385038,0.461247,22.012352
17100,2265,-1.371878,7.606379,-3.737349,-0.272591,-0.177464,0.41728,21.988823
17110,1872,-0.840365,8.24563,-3.603274,-0.325617,0.025314,0.387969,21.994705
17120,1296,0.011971,8.647857,-2.92332,-0.370649,0.159611,0.357859,22.00647
17130,617,0.584185,8.791509,-2.351106,-0.414882,0.173734,0.308297,22.003529
17140,0,0.536301,8.743625,-2.331953,-0.524665,0.081271,0.249675,21.988823
17150,0,-0.02873,8.817844,-2.578555,-0.686141,-0.050628,0.192919,22.003529
17160,0,-0.804452,9.085996,-2.688689,-0.836692,-0.114046,0.124971,21.997646
17170,0,-1.228225,9.478644,-2.647987,-0.921161,-0.063685,0.036505,21.991764
17180,134,-1.206678,9.950302,-2.688689,-0.964861,0.032508,-0.074609,22.012352
17190,1454,-0.696713,10.244789,-3.222595,-1.007228,0.119908,-0.207041,21.997646
17200,2313,0.383072,10.697293,-3.799598,-1.053593,0.275256,-0.357859,22.00647
17210,2873,1.951274,11.389217,-3.490746,-1.071712,0.32615,-0.466842,22.003529
17220,2993,3.129222,12.231977,-2.932897,-1.071446,0.204643,-0.56117,22.000587
17230,2603,3.758897,13.194446,-2.41575,-1.007495,0.018919,-0.631783,22.00647
17240,1856,3.849876,14.070724,-1.944092,-0.905173,-0.117776,-0.75249,21.994705
17250,1209,3.576937,14.585477,-1.297657,-0.805516,-0.20038,-0.871599,22.012352
17260,813,3.232172,14.420277,-0.622492,-0.732772,-0.171069,-0.935816,22.018236
17270,690,3.038242,13.867216,0.136469,-0.629384,-0.055957,-0.981914,22.018236
17280,717,3.177106,13.110648,0.924162,-0.48283,0.074609,-1.024815,22.00647
17290,931,3.186682,12.368446,1.331176,-0.326417,0.258469,-1.056524,22.012352
17300,875,3.045424,11.841722,1.04866,-0.148153,0.473237,-1.063985,22.018236
17310,850,3.363853,11.113884,0.500388,0.041835,0.697066,-1.035473,21.997646
17320,1440,4.311957,10.630256,0.07422,0.212104,0.935816,-1.060254,22.000587
17330,2406,5.951985,10.498574,0.517148,0.352263,1.073844,-1.0011,22.012352
17340,3664,7.864953,10.979809,0.59855,0.478567,0.838024,-0.999767,21.994705
17350,4095,8.597578,12.014104,-0.380678,0.488426,0.056224,-0.977917,22.00647
17360,4095,8.066066,12.569559,-1.640028,0.32615,-0.860674,-0.858276,22.018236
17370,4095,5.966351,12.756307,-2.229002,0.107384,-1.393066,-0.599274,22.003529
17380,4095,4.07972,12.670115,-2.178724,-0.001865,-1.475136,-0.320554,22.012352
17390,4095,2.432509,12.806585,-2.224213,-0.003198,-1.385605,-0.127636,22.012352
17400,4095,0.830788,13.168109,-2.626439,0.033841,-1.362156,0.00373,22.009411
17410,2843,-0.493206,13.273455,-2.954445,0.068214,-1.374946,0.101256,21.994705
17420,1829,-1.661576,12.837709,-2.494758,0.224361,-1.180429,0.123639,22.000587
17430,1621,-2.401384,12.006922,-2.504335,0.542251,-0.747161,0.142291,22.015295
17440,1457,-2.312799,10.881647,-2.63841,0.785798,-0.292842,0.049029,22.00647
17450,1287,-2.06859,9.679757,-2.530671,0.931553,0.050361,-0.031975,22.00647
17460,1136,-1.762132,8.362947,-2.499547,1.020285,0.290977,-0.063152,22.015295
17470,898,-1.505953,7.182605,-2.466028,1.090364,0.435133,-0.078873,22.015295
17480,786,-1.118092,6.026206,-2.482787,1.114346,0.516671,-0.102322,22.009411
