time_ms, ECG, accX, accY, accZ, gyroX, gyroY, gyroZ, temp_C
439,1610,0.6129,6.4093,1.494,-1.7605,-1.3113,0.2078,25.5
449,1658,-0.2274,7.7452,1.6017,-2.0555,-1.2252,0.2995,25.5
459,1678,-0.929,9.402,2.0375,-2.1951,-0.9406,0.3637,25.52
469,1716,-1.3192,11.078,2.8443,-2.1453,-0.5132,0.3701,25.52
479,1756,-1.312,12.5791,3.9193,-1.9183,-0.0381,0.3246,25.52
489,1774,-0.8475,13.6374,5.1787,-1.5314,0.3738,0.2441,25.53
499,1884,-0.0479,14.1521,6.3734,-1.0147,0.6291,0.1388,25.53
509,1926,0.9146,14.0109,7.0629,-0.4032,0.7045,0.0234,25.54
519,1921,1.7909,13.3477,7.0102,0.2337,0.6544,-0.0973,25.53
529,1969,2.3343,12.3924,6.3255,0.8151,0.5601,-0.1961,25.54
539,1990,2.545,11.2192,5.296,1.2881,0.469,-0.2555,25.55
549,1988,2.5283,9.9335,4.1204,1.6241,0.397,-0.2766,25.55
559,1984,2.3727,8.6646,2.9209,1.8295,0.3563,-0.2633,25.56
569,1919,2.0806,7.4555,1.8364,1.9007,0.3475,-0.2022,25.56
579,1833,1.6688,6.3925,0.826,1.7949,0.3243,-0.1394,25.57
589,1642,1.3815,5.4564,-0.2059,1.4991,0.332,-0.0986,25.57
599,1613,0.7207,5.047,-0.929,1.0214,0.3611,-0.0362,25.56
609,1507,0.4166,4.628,-1.2019,0.4831,0.4069,0.0807,25.57
619,1426,0.3735,4.5011,-1.166,-0.0506,0.4413,0.1641,25.58
629,1441,0.3519,4.7645,-1.0391,-0.5812,0.433,0.2201,25.59
639,1399,0.5028,5.2289,-0.8906,-1.1146,0.4008,0.2395,25.57
649,1375,0.577,5.9568,-0.6584,-1.5961,0.3632,0.218,25.57
659,1372,0.7207,6.8283,-0.1389,-1.9364,0.3488,0.1836,25.57
669,1321,0.8763,7.7668,0.6369,-2.092,0.3826,0.1466,25.57
679,1367,1.0846,8.746,1.561,-2.055,0.4506,0.1196,25.58
689,1356,1.2641,9.6007,2.478,-1.8551,0.5385,0.1002,25.58
699,1376,1.5371,10.2903,3.4141,-1.5082,0.6297,0.0903,25.6
709,1380,1.7717,10.7739,4.1683,-1.0568,0.6979,0.1079,25.59
719,1418,2.1093,11.0109,4.4676,-0.5852,0.7157,0.1308,25.59
729,1420,2.32,11.0516,4.4724,-0.1671,0.6755,0.1298,25.58
739,1442,2.229,10.8194,4.2737,0.2038,0.571,0.1431,25.6
749,1438,2.0399,10.4052,3.7781,0.5329,0.4269,0.1697,25.59
759,1475,1.8364,9.8881,3.0502,0.793,0.2968,0.1809,25.58
769,1462,1.6233,9.2823,2.1476,0.967,0.2374,0.1556,25.59
779,1487,1.3192,8.6933,1.2641,1.0421,0.2779,0.11,25.59
789,1456,0.9146,8.2432,0.6105,1.0283,0.3874,0.0671,25.59
799,1490,0.6584,7.7859,0.1293,0.9204,0.5236,0.0624,25.61
809,1487,0.5291,7.446,-0.1604,0.7352,0.636,0.0637,25.61
819,1519,0.4094,7.2688,-0.2682,0.497,0.6832,0.0709,25.61
829,1503,0.3807,7.3454,-0.2538,0.2156,0.6598,0.0877,25.6
833,1515,0.3735,7.4436,-0.1628,0.0946,0.6408,0.0994,25.6
843,1535,0.4956,7.7524,0.2466,-0.1964,0.5873,0.1242,25.61
853,1595,0.7183,8.0948,0.759,-0.4266,0.5305,0.1167,25.62
863,1737,0.9385,8.5617,1.4629,-0.5449,0.4988,0.0855,25.61
873,1741,1.0606,9.3254,2.1069,-0.5004,0.5249,0.0432,25.62
883,1822,1.0798,10.0413,2.1141,-0.368,0.586,0.0285,25.63
893,1855,1.3192,10.4387,1.8627,-0.2441,0.582,0.0322,25.63
903,1858,1.5802,10.5417,1.8818,-0.0693,0.4924,0.0386,25.62
913,1750,1.6257,10.5608,1.8292,0.1673,0.3166,0.0466,25.61
923,1662,1.3024,10.4914,1.1708,0.3728,0.1183,0.0703,25.62
933,1602,0.6991,10.2927,0.3663,0.4823,0.029,0.1015,25.64
943,1599,0.2538,9.9623,-0.0263,0.5236,0.0709,0.113,25.64
953,1604,0.1149,9.742,0.067,0.5297,0.1511,0.0874,25.64
963,1641,0.0503,9.7492,0.1963,0.5135,0.219,0.0616,25.65
973,1629,0.0192,9.9311,0.395,0.5079,0.2558,0.0469,25.64
983,1650,-0.0622,10.386,0.4956,0.5287,0.2617,0.0368,25.64
993,1683,-0.1053,10.963,0.3783,0.4988,0.2529,0.0189,25.64
1003,1674,0.0407,11.3581,0.5148,0.2726,0.2321,0.0024,25.64
1013,1449,0.4645,11.2815,1.4126,-0.0957,0.198,-0.016,25.63
1023,1403,1.0678,10.8697,3.1795,-0.4032,0.1428,-0.0674,25.65
1033,3583,1.5107,10.5417,4.9273,-0.5404,0.0783,-0.1154,25.64
1043,4095,1.9249,10.4028,6.0382,-0.6542,0.0546,-0.1644,25.64
1053,3895,1.9872,10.4172,6.9001,-0.8404,-0.0005,-0.2438,25.66
1063,1010,1.9585,10.6853,7.4172,-1.0211,-0.0749,-0.2942,25.67
1073,1535,1.8627,11.0157,7.525,-1.0643,-0.1018,-0.2713,25.66
1083,1659,1.7047,11.2934,7.2185,-0.9012,-0.0602,-0.1833,25.65
1093,1488,1.3982,11.2671,6.7157,-0.586,0.0474,-0.0613,25.64
1103,1535,0.8667,11.0732,6.2728,-0.1204,0.2041,0.0738,25.66
1113,1619,0.0982,10.5967,5.8035,0.4447,0.3488,0.2065,25.65
1123,1694,-0.7135,9.7372,5.1068,1.0214,0.4607,0.3507,25.66
1133,1681,-1.3144,8.4898,3.9911,1.5271,0.5636,0.458,25.65
1143,1703,-2.0207,7.2592,2.6456,1.8658,0.7163,0.4767,25.66
1153,1714,-2.5091,6.0573,1.1325,1.9204,0.9212,0.4724,25.67
1163,1776,-2.6791,5.0949,-0.1915,1.5889,1.1868,0.3917,25.67
1173,1827,-2.5067,4.4819,-0.2394,0.9185,1.4429,0.324,25.66
1183,1857,-1.7813,4.4412,0.984,0.1791,1.5372,0.2625,25.66
1193,1808,-0.5483,5.0925,2.0399,-0.5063,1.4485,0.1828,25.68
1203,1893,0.747,6.043,2.7054,-1.2244,1.3379,0.052,25.7
1213,1886,1.9896,7.3789,3.0981,-1.8719,1.238,-0.0853,25.71
1223,1897,3.0287,9.0573,3.5937,-2.3033,1.1698,-0.2105,25.68
1227,1904,3.3543,9.7492,3.8259,-2.4054,1.1413,-0.2417,25.68
1237,1914,3.8283,11.4203,4.7788,-2.4664,1.0435,-0.2289,25.68
1247,1935,4.1348,12.7324,5.7102,-2.2436,0.8921,-0.0695,25.67
1257,2019,4.0534,13.4865,6.5745,-1.7621,0.6848,0.1679,25.68
1267,2078,3.644,13.465,6.8905,-1.0728,0.4375,0.4149,25.68
1277,2111,2.8491,12.9191,6.7277,-0.2547,0.1676,0.5934,25.69
1287,2167,1.6807,12.0596,6.1746,0.6291,-0.1005,0.7261,25.69
1297,2203,0.5339,10.8577,5.2002,1.4706,-0.3091,0.8084,25.69
1307,2167,-0.4094,9.426,3.7828,2.1242,-0.3986,0.7597,25.68
1317,2112,-1.2665,8.0038,2.1787,2.4752,-0.2926,0.5788,25.69
1327,1998,-1.9561,6.7229,0.5722,2.5002,-0.0288,0.3341,25.7
1337,1945,-2.399,5.7652,-1.0606,2.1813,0.3616,0.0573,25.71
1347,1865,-2.3583,5.0589,-1.9489,1.6188,0.8399,-0.1255,25.7
1357,1799,-1.6376,4.628,-1.8723,0.9939,1.1847,-0.1844,25.69
1367,1807,-0.4764,4.5179,-1.3144,0.3691,1.2806,-0.1785,25.69
1377,1797,0.7398,4.8339,-0.4214,-0.2419,1.0922,-0.1556,25.69
1387,1814,1.5993,5.4636,0.3998,-0.7552,0.7077,-0.0925,25.7
1397,1797,2.1404,6.1746,0.9313,-1.1263,0.2494,-0.0035,25.72
1407,1810,2.2482,6.9911,1.2091,-1.3123,-0.1346,0.0831,25.71
1417,1838,2.047,7.7955,1.415,-1.2788,-0.373,0.1498,25.72
1427,1778,1.6352,8.5976,1.6137,-1.0725,-0.4477,0.1876,25.73
1437,1856,1.1229,9.3087,1.8842,-0.74,-0.4104,0.2262,25.7
1447,1870,0.644,9.7779,2.2338,-0.3158,-0.311,0.2673,25.7
1457,1909,0.2682,9.8186,2.308,0.1394,-0.2057,0.3056,25.7
1467,1933,0.1365,9.4236,2.2577,0.5241,-0.1591,0.3248,25.69
1477,1927,0.0838,8.9615,1.9848,0.8167,-0.2126,0.3083,25.7
1487,1987,0.0215,8.5018,1.3958,0.947,-0.3168,0.2388,25.71
1497,1936,-0.0431,8.1283,0.7374,0.8676,-0.4048,0.1311,25.72
1507,1981,-0.091,7.9392,0.2658,0.619,-0.4266,0.0226,25.7
1517,1957,-0.0718,8.0278,0.2825,0.291,-0.3792,-0.0533,25.71
1527,1910,0.0551,8.3246,0.7159,0.0184,-0.308,-0.0807,25.72
1537,1984,0.1891,8.7197,1.2905,-0.0882,-0.2454,-0.0725,25.72
1547,2001,0.261,9.0956,1.5538,-0.0195,-0.1913,-0.0117,25.69
1557,1981,0.261,9.3182,1.3862,0.1548,-0.1431,0.0917,25.7
1567,1959,0.2131,9.4763,1.0582,0.3413,-0.1252,0.21,25.7
1577,1990,0.182,9.6798,0.6081,0.4855,-0.15,0.3214,25.71
1587,2095,0.2873,9.8114,0.1413,0.5263,-0.2017,0.3717,25.71
1597,2147,0.2753,10.1251,-0.0239,0.4714,-0.2521,0.3118,25.71
1607,2224,0.237,10.3262,-0.0359,0.388,-0.2382,0.2278,25.71
1617,2293,0.316,10.3094,0.158,0.2667,-0.1623,0.121,25.72
1621,2277,0.3687,10.3118,0.2705,0.2196,-0.1228,0.0722,25.72
1631,2268,0.4693,10.3813,0.6273,0.1482,-0.0181,-0.0472,25.72
1641,2147,0.6752,10.4267,0.7494,0.146,0.0871,-0.1431,25.73
1651,2031,1.2163,10.5225,0.6728,0.2036,0.1665,-0.203,25.73
1661,1923,1.9465,10.8266,0.3711,0.2326,0.186,-0.2222,25.73
1671,1925,2.7845,11.4179,0.4429,0.1354,0.0658,-0.1927,25.74
1681,1971,3.4189,12.1482,1.2737,-0.138,-0.2332,-0.1396,25.74
1691,1903,3.7757,12.8162,3.3208,-0.4604,-0.6851,-0.0373,25.72
1701,1936,3.6847,13.2663,5.7628,-0.6161,-1.1626,0.0959,25.73
1711,1915,3.213,13.6661,7.7764,-0.5801,-1.4341,0.2233,25.73
1721,1919,2.715,13.7212,8.9591,-0.474,-1.3723,0.2886,25.74
1731,1862,2.2027,13.3501,9.5792,-0.3597,-1.0003,0.2539,25.74
1741,1708,2.0351,13.0843,10.0365,-0.1612,-0.5185,0.1132,25.74
1751,1610,2.0853,12.9574,9.8569,0.3174,-0.0645,-0.032,25.73
1761,3751,2.0853,12.4139,8.5066,1.0126,0.1887,-0.2081,25.75
1771,4095,2.0518,11.3485,6.043,1.7091,0.1966,-0.3861,25.73
1781,4095,1.9273,9.754,2.9042,2.2372,-0.004,-0.5348,25.73
1791,1599,1.8364,7.6423,-0.091,2.492,-0.2771,-0.6291,25.74
1801,1831,1.3695,5.9903,-2.4828,2.3747,-0.6113,-0.6126,25.75
1811,2021,1.2306,4.5945,-3.8235,1.8237,-1.0669,-0.4415,25.74
1821,1977,1.2594,3.5721,-3.6296,0.9697,-1.61,-0.3006,25.74
1831,1925,0.9625,3.4405,-2.2673,-0.0184,-2.1344,-0.1668,25.73
1841,1864,0.498,3.9504,-0.3687,-0.9995,-2.4712,-0.0037,25.74
1851,1886,-0.1125,4.9368,1.391,-1.8253,-2.4752,0.1346,25.75
1861,1926,-0.8547,6.4667,2.7557,-2.3118,-2.1256,0.2246,25.74
1871,1935,-1.3575,8.8825,3.6536,-2.4893,-1.4613,0.2862,25.74
1881,1978,-1.3336,11.3533,4.0318,-2.3321,-0.7304,0.2582,25.74
1891,2033,-0.8739,13.1226,4.5346,-1.9774,-0.1428,0.1303,25.74
1901,2036,-0.1867,13.8241,5.3367,-1.3694,0.1452,-0.0762,25.76
1911,2057,0.3879,13.465,5.8227,-0.5124,0.1476,-0.2952,25.75
1921,2128,0.7638,12.4858,5.4277,0.4112,0.0155,-0.4554,25.75
1931,2113,1.0343,11.1402,4.1587,1.2201,-0.1124,-0.5281,25.76
1941,2115,1.3455,9.4284,2.4229,1.8202,-0.1761,-0.551,25.78
1951,2090,1.5921,7.6399,0.4166,2.1562,-0.1212,-0.5825,25.77
1961,2110,1.7406,6.177,-1.154,2.2039,-0.0099,-0.5236,25.79
1971,2124,2.1596,4.798,-2.2817,1.975,0.0648,-0.4135,25.79
1981,2149,2.6767,3.7876,-2.6576,1.5274,0.049,-0.3067,25.77
1991,2166,3.1412,3.2896,-2.3152,0.9499,-0.0895,-0.1695,25.78
2001,2129,3.2681,3.5075,-1.403,0.3131,-0.3797,-0.0301,25.77
2011,2143,2.885,4.0845,-0.6105,-0.2838,-0.72,0.1069,25.78
2015,2146,2.6959,4.3191,-0.3711,-0.5055,-0.8466,0.1487,25.78
2025,2108,1.9992,5.1188,0.1772,-0.9931,-1.088,0.214,25.77
2035,2082,1.2881,6.0789,0.3735,-1.3379,-1.1786,0.2278,25.78
2045,1979,0.5483,7.0294,0.4334,-1.5513,-1.0725,0.1772,25.77
2055,1882,-0.1413,8.0948,0.68,-1.611,-0.7933,0.1007,25.79
2065,1818,-0.5411,9.1387,1.1085,-1.4994,-0.4277,0.0317,25.79
2075,1737,-0.6033,10.0126,1.47,-1.2185,-0.0608,-0.0208,25.77
2085,1683,-0.2993,10.4818,1.7071,-0.8412,0.2268,-0.0621,25.77
2095,1642,0.1604,10.5465,1.8196,-0.4128,0.4069,-0.0973,25.78
2105,1659,0.6201,10.2208,1.7765,0.0104,0.4876,-0.1127,25.78
2115,1718,0.9864,9.7061,1.506,0.384,0.5108,-0.1098,25.79
2125,1559,1.2282,9.1291,1.0056,0.6787,0.5193,-0.0919,25.79
2135,1574,1.3838,8.5736,0.3711,0.8716,0.5383,-0.0719,25.79
2145,1638,1.4844,8.1259,-0.2945,0.9542,0.5612,-0.0472,25.78
2155,1661,1.5443,7.8458,-0.9553,0.9238,0.5737,-0.0248,25.78
2165,1619,1.5754,7.8219,-1.3934,0.7618,0.5452,-0.0083,25.79
2175,1667,1.5251,8.0134,-1.3815,0.4855,0.4434,0.0069,25.8
2185,1647,1.2498,8.6814,-0.8835,0.2204,0.2974,0.0123,25.79
2195,1680,0.9074,9.2991,-0.5004,0.029,0.1916,0.0115,25.79
2205,1628,0.7111,9.7971,-0.17,-0.1529,0.1276,-0.0035,25.8
2215,1710,0.7183,10.3046,0.1676,-0.3195,0.0786,-0.0354,25.79
2225,1687,0.6919,10.7524,0.5148,-0.4631,0.0386,-0.0749,25.8
2235,1683,0.6752,11.133,0.8787,-0.566,0.012,-0.1066,25.81
2245,1723,0.7877,11.4515,1.1708,-0.6134,0.0043,-0.1498,25.81
2255,1709,0.8164,11.8681,1.4581,-0.5716,0.0048,-0.1956,25.8
2265,1703,0.7494,12.141,1.4653,-0.4128,0.0189,-0.1985,25.8
2275,1715,0.7111,12.1266,1.1588,-0.1865,0.0482,-0.158,25.78
2285,1727,0.759,12.1362,0.4621,0.0674,0.1279,-0.1026,25.79
2295,1770,0.5483,12.4044,-0.091,0.2944,0.2372,-0.0645,25.79
2305,1856,0.1891,12.615,-0.3615,0.4181,0.3464,0.0013,25.79
2315,1921,0.3543,12.3804,-0.0814,0.3259,0.477,0.0682,25.8
2325,2034,0.7446,11.825,1.2234,0.0687,0.5985,0.0738,25.8
2335,2087,1.087,11.1235,3.0765,-0.2145,0.619,0.0389,25.78
2345,2096,1.154,10.5943,4.6711,-0.4274,0.5263,-0.0088,25.79
2355,2019,0.9337,10.0628,5.545,-0.615,0.3411,0.0019,25.8
2365,1845,0.6847,9.5217,5.9759,-0.7424,0.1796,0.0677,25.81
2375,1750,0.316,9.1147,6.1124,-0.821,0.04,0.1516,25.79
2385,1738,-0.1101,8.8131,5.8419,-0.8039,-0.04,0.2553,25.82
2395,1783,-0.5818,8.6622,5.0661,-0.6043,-0.0192,0.3837,25.82
2405,1756,-0.9242,8.5569,3.7589,-0.2489,0.146,0.5036,25.83
2409,1743,-1.0511,8.5186,3.1029,-0.0866,0.2534,0.5449,25.81
2419,1777,-1.2282,8.4683,1.5203,0.2862,0.6259,0.6219,25.81
2429,1841,-0.6632,8.509,0.3879,0.5281,1.0597,0.587,25.82
2439,1817,-0.1915,8.8155,0.4645,0.5961,1.3955,0.4151,25.81
2449,1803,0.5842,9.2368,1.0271,0.555,1.5537,0.2222,25.82
2459,1747,1.4892,9.912,1.8747,0.3669,1.5513,0.0139,25.83
2469,1424,2.6767,10.8936,2.4421,0.0117,1.4218,-0.1953,25.81
2479,2242,3.3662,12.2535,3.1915,-0.4671,1.2023,-0.3813,25.81
2489,4095,3.5554,13.6302,4.4077,-0.8231,0.8932,-0.3898,25.82
2499,4095,3.395,14.54,5.2457,-0.894,0.5982,-0.1817,25.83
2509,2289,3.2872,14.5376,5.3439,-0.7226,0.3938,0.145,25.83
2519,1390,3.1699,13.7236,5.1236,-0.3773,0.2356,0.4487,25.82
2529,1838,2.8683,12.6845,4.7501,0.1665,0.0381,0.6704,25.81
2539,1796,2.241,11.3772,3.7709,0.846,-0.1623,0.7655,25.82
2549,1762,1.336,9.7899,1.9537,1.473,-0.2577,0.7418,25.81
2559,1767,0.3663,7.9272,0.2538,1.8738,-0.1905,0.6262,25.82
2569,1773,-0.4932,6.0358,-1.0989,1.9851,-0.0464,0.4263,25.83
2579,1835,-1.154,4.5155,-2.059,1.7709,0.1236,0.218,25.82
2589,1887,-1.4772,3.3088,-2.6121,1.2828,0.2419,0.052,25.82
2599,1879,-1.5347,2.6767,-2.7892,0.603,0.2627,-0.0791,25.83
2609,1881,-1.391,2.6839,-2.4349,-0.145,0.1964,-0.1615,25.83
2619,1910,-1.0056,3.213,-1.549,-0.7991,0.0522,-0.1913,25.83
2629,1951,-0.5052,3.9983,-0.5698,-1.2569,-0.1367,-0.1743,25.84
2639,1954,-0.0766,4.8722,0.091,-1.4818,-0.2777,-0.1306,25.84
2649,1948,0.2442,5.8179,0.5028,-1.4831,-0.2998,-0.0682,25.83
2659,2017,0.5124,6.7636,0.826,-1.3459,-0.2172,0.008,25.83
2669,2035,0.826,7.5848,1.087,-1.1682,-0.1103,0.0727,25.84
2679,2063,1.1253,8.3103,1.4676,-0.9838,-0.0453,0.1263,25.83
2689,2140,1.391,8.9184,1.9345,-0.806,-0.052,0.1583,25.82
2699,2140,1.4916,9.3853,2.3655,-0.6315,-0.1231,0.1687,25.85
2709,2177,1.3958,9.5648,2.4852,-0.4708,-0.1998,0.1639,25.84
2719,2224,1.2282,9.4068,2.4397,-0.3299,-0.2609,0.146,25.86
2729,2190,1.063,8.8705,2.1883,-0.223,-0.3259,0.1124,25.84
2739,2240,0.9768,8.3941,1.8842,-0.1396,-0.4322,0.0743,25.83
2749,2222,0.6991,8.0804,1.336,-0.0544,-0.5449,0.0394,25.84
2759,2191,0.3519,7.9224,0.7925,0.0293,-0.6001,0.0019,25.83
2769,2100,-0.1245,7.9464,0.2849,0.1202,-0.5758,-0.0402,25.84
2779,2007,-0.5626,8.0972,-0.0934,0.2156,-0.4754,-0.0834,25.82
2789,1913,-0.8571,8.3917,-0.3184,0.3136,-0.3384,-0.1042,25.85
2799,1787,-0.893,8.7364,-0.4549,0.3821,-0.1985,-0.0805,25.86
2803,1787,-0.8284,8.9232,-0.4573,0.393,-0.1506,-0.0578,25.84
2813,1787,-0.4908,9.7037,-0.1221,0.404,-0.0512,0.0173,25.84
2823,1759,-0.1437,10.4986,0.0383,0.3744,-0.0011,0.0962,25.82
2833,1739,0.0982,11.0229,-0.0096,0.2558,0.0173,0.1809,25.83
2843,1740,0.3112,11.3126,-0.1173,0.0069,0.0141,0.251,25.84
2853,1649,0.4788,11.4539,-0.0335,-0.3341,0.0115,0.2686,25.83
2863,1751,0.6632,11.6478,0.1652,-0.6515,0.0304,0.2369,25.84
2873,1698,0.838,11.8465,0.3998,-0.8871,0.0879,0.1892,25.84
2883,1776,1.0798,11.983,0.6871,-0.9806,0.194,0.1463,25.85
2893,1842,1.4293,12.1817,1.0175,-0.8812,0.3142,0.1106,25.83
2903,1718,1.7765,12.4929,1.2091,-0.6382,0.4066,0.0941,25.83
2913,1730,2.1141,12.7731,1.2857,-0.3904,0.3981,0.1092,25.84
2923,1721,2.3343,12.8928,1.6568,-0.2446,0.2326,0.1556,25.85
2933,1665,2.3942,12.7611,2.0662,-0.2246,-0.0898,0.2238,25.84
2943,1711,2.0853,12.3277,2.9808,-0.3541,-0.4469,0.3163,25.84
2953,1603,1.5467,11.813,3.9959,-0.4652,-0.7389,0.4533,25.85
2963,1646,1.3144,11.3102,4.8459,-0.648,-0.858,0.5287,25.85
2973,1631,1.2498,10.9032,5.7509,-0.8705,-0.7202,0.4903,25.83
2983,1622,1.3479,10.4076,6.7947,-1.0608,-0.3744,0.3341,25.85
2993,1584,1.6712,9.9144,7.7117,-1.1053,0.0687,0.0882,25.85
3003,1648,2.2003,9.2632,8.0876,-0.9832,0.4311,-0.1916,25.85
3013,1679,2.6384,8.5928,8.1954,-0.7194,0.5713,-0.4338,25.85
3023,1669,2.9281,8.1259,7.7979,-0.2702,0.4618,-0.6169,25.86
3033,1777,3.0454,7.7093,6.675,0.2984,0.1434,-0.7069,25.85
3043,1875,3.225,7.1251,4.9464,0.8847,-0.304,-0.7133,25.85
3053,1899,3.3184,6.5027,2.9616,1.3901,-0.781,-0.6672,25.88
3063,2006,3.3662,5.9065,1.1157,1.6896,-1.23,-0.5995,25.86
3073,1985,3.2561,5.5857,-0.2346,1.6358,-1.6092,-0.5297,25.86
3083,1863,3.0598,5.5426,-0.7183,1.2087,-1.8796,-0.4349,25.85
3093,1714,2.6719,6.0501,-0.3831,0.5526,-1.9377,-0.3006,25.85
3103,1616,2.0446,7.0844,0.8619,-0.1767,-1.7603,-0.1719,25.84
3113,1601,1.3551,8.7987,2.4684,-0.858,-1.5146,-0.0077,25.84
3123,1635,0.6776,10.7452,3.7757,-1.4594,-1.2953,0.2025,25.85
3133,1681,0.1748,12.3014,5.1356,-1.8016,-1.2023,0.3144,25.86
3143,1707,-0.261,13.2735,5.7676,-1.7315,-1.1954,0.2318,25.87
3153,1751,-0.6991,13.5991,5.9544,-1.2881,-1.1365,0.004,25.85
3163,1782,-1.0606,13.0723,5.1954,-0.6432,-0.9934,-0.2345,25.87
3173,1807,-1.142,12.208,4.5753,0.0421,-0.7496,-0.3949,25.86
3183,1773,-0.8188,11.1642,3.9456,0.7605,-0.4596,-0.5255,25.86
3193,1465,-0.316,9.8928,2.8635,1.4059,-0.1809,-0.643,25.85
3197,1584,-0.0886,9.3446,2.3487,1.6212,-0.0799,-0.6792,25.86
3207,3610,0.5076,7.8314,0.8547,2.0169,0.138,-0.7344,25.87
3217,4095,1.1205,6.2273,-0.4669,2.1509,0.328,-0.7842,25.87
3227,4095,1.5107,5.0685,-1.3671,2.0011,0.4365,-0.7658,25.85
3237,1279,2.0231,4.1324,-1.6065,1.6318,0.4431,-0.648,25.84
3247,1666,2.4229,3.4117,-1.3503,1.1679,0.3168,-0.478,25.86
3257,1826,2.7964,3.2178,-1.1372,0.6459,0.0981,-0.2745,25.87
3267,1744,2.9329,3.4955,-0.723,0.0541,-0.1919,-0.0722,25.84
3277,1713,2.7078,3.8475,-0.3184,-0.5502,-0.5225,0.0901,25.87
3287,1729,2.1476,4.4293,0.067,-1.1029,-0.8084,0.1831,25.86
3297,1710,1.3886,5.3798,0.4717,-1.509,-0.9731,0.2534,25.87
3307,1739,0.5794,6.6176,0.7973,-1.6835,-0.9662,0.3086,25.87
3317,1794,-0.0455,7.8482,1.1349,-1.6398,-0.797,0.3387,25.88
3327,1814,-0.4238,9.0142,1.4437,-1.4165,-0.5097,0.3123,25.89
3337,1840,-0.5842,9.9695,1.6185,-1.0709,-0.1711,0.2438,25.88
3347,1871,-0.4094,10.4746,1.8603,-0.6696,0.1279,0.162,25.86
3357,1879,-0.0694,10.5369,2.0949,-0.2467,0.3144,0.0789,25.87
3367,1921,0.2586,10.3094,2.0614,0.1681,0.4021,0.0043,25.86
3377,1938,0.4118,9.9288,1.7166,0.5407,0.4562,-0.0528,25.86
3387,1970,0.5626,9.596,1.2378,0.8484,0.5404,-0.0938,25.85
3397,2015,0.723,9.3182,0.759,1.0781,0.6438,-0.117,25.87
3407,2047,0.8691,8.9878,0.2251,1.2001,0.7298,-0.1124,25.88
3417,2085,1.0319,8.6646,-0.1963,1.1767,0.7506,-0.0799,25.89
3427,2099,1.2546,8.4779,-0.3663,1.0163,0.6659,-0.036,25.87
3437,2106,1.4724,8.5353,-0.3974,0.752,0.4759,0.0099,25.87
3447,2119,1.6113,8.8609,-0.3519,0.4546,0.2707,0.0504,25.88
3457,2144,1.6807,9.4044,-0.1867,0.1951,0.138,0.0703,25.87
3467,2123,1.7119,9.9551,-0.1532,-0.0573,0.1002,0.0549,25.87
3477,2106,1.6927,10.4962,-0.1269,-0.3565,0.1002,0.0203,25.89
3487,2032,1.5826,11.1474,0.3208,-0.6608,0.125,-0.0272,25.89
3497,1963,1.336,11.971,1.0223,-0.8505,0.1748,-0.0565,25.88
3507,1889,1.0175,12.8664,1.7813,-0.8367,0.2502,-0.052,25.88
3517,1836,0.7015,13.7667,2.4995,-0.5865,0.3102,-0.0205,25.88
3527,1787,0.3807,14.4897,2.6839,-0.1447,0.3123,0.0133,25.88
3537,1781,0.1508,14.8919,2.3966,0.3309,0.2646,0.0426,25.87
3547,1697,-0.1269,14.607,1.9321,0.6416,0.2257,0.0469,25.88
3557,1748,-0.1317,13.6948,2.0734,0.6947,0.2435,0.0341,25.89
3567,1756,0.2897,12.4522,2.7007,0.5444,0.2979,-0.0088,25.89
3577,1690,0.8619,11.3054,3.5027,0.2787,0.3517,-0.0648,25.89
3587,1680,1.2785,10.4196,4.3359,-0.0181,0.405,-0.0714,25.88
3591,1675,1.3838,10.1083,4.6543,-0.129,0.4277,-0.0488,25.88
3601,1753,1.5155,9.4044,5.2601,-0.3648,0.5081,0.0847,25.87
3611,1712,1.3288,8.7293,5.7964,-0.5308,0.5441,0.2273,25.89
3621,1735,0.917,8.3677,5.9472,-0.5628,0.583,0.3691,25.89
3631,1701,0.4669,8.1786,5.545,-0.3653,0.6534,0.5305,25.89
3641,1744,0.1341,7.9344,4.549,0.0405,0.741,0.6835,25.88
3651,1799,0.0575,7.6088,2.7869,0.5388,0.8487,0.7839,25.88
3661,1765,-0.091,7.2089,0.838,0.9665,0.9769,0.7938,25.89
3671,1793,-0.3903,6.7564,-0.2227,1.1674,1.1157,0.7059,25.87
3681,1819,-0.249,6.4763,-0.1437,1.1253,1.1525,0.5359,25.89
3691,1766,0.1125,6.7181,0.7135,0.895,1.0808,0.3099,25.88
3701,1755,0.9002,7.4412,1.3168,0.5287,1.0323,0.044,25.88
3711,1837,1.5323,8.5018,1.7502,-0.0099,1.073,-0.2294,25.9
3721,1838,1.8172,9.8809,2.1284,-0.6344,1.1748,-0.4117,25.91
3731,1776,2.0063,11.3461,2.9042,-1.1447,1.2913,-0.3829,25.91
3741,1793,2.4828,12.639,3.7014,-1.3576,1.3411,-0.1751,25.89
3751,1879,3.4141,13.702,4.3359,-1.3336,1.2905,0.1388,25.89
3761,1989,4.1252,14.0899,4.616,-1.0968,1.1381,0.4298,25.9
3771,2032,4.3191,12.7587,4.2353,-0.818,0.934,0.6579,25.9
3781,2083,4.3311,11.0804,4.3958,-0.4434,0.6376,0.785,25.89
3791,1998,3.8427,9.8306,4.525,0.1018,0.2382,0.8167,25.89
3801,1906,2.9066,8.7077,3.8044,0.6915,-0.1719,0.7637,25.9
3811,1968,1.8244,7.6734,2.2458,1.1362,-0.4655,0.6438,25.9
3821,1802,0.7709,6.5194,0.316,1.3451,-0.55,0.494,25.89
3831,1857,-0.2562,5.442,-1.0942,1.2857,-0.4767,0.2747,25.89
3841,1878,-1.1732,4.5298,-1.8364,0.98,-0.3424,0.061,25.91
3851,1807,-1.6855,3.9696,-1.9513,0.5041,-0.2393,-0.0496,25.91
3861,1793,-1.6305,3.7134,-1.3982,-0.024,-0.199,-0.0685,25.91
3871,1794,-1.0678,4.0558,-0.103,-0.4495,-0.2158,-0.0477,25.9
3881,1832,-0.3017,4.5107,1.1779,-0.74,-0.3523,-0.0506,25.91
3891,1786,0.2274,5.0542,2.2553,-0.9284,-0.4644,-0.0528,25.9
3901,1712,0.6033,5.6096,2.5786,-1.0352,-0.5079,-0.06,25.9
3911,1439,0.7757,6.1842,2.3583,-1.1426,-0.4868,-0.0584,25.92
3921,2501,0.9601,6.8905,2.0853,-1.2063,-0.4319,-0.0552,25.91
3931,4095,1.1756,7.7524,1.9225,-1.1429,-0.3619,-0.0669,25.91
3941,4095,1.3527,8.7125,1.5897,-0.9505,-0.3328,-0.0759,25.9
3951,2198,1.1995,9.5672,0.7925,-0.6931,-0.3035,-0.0456,25.91
3961,1436,1.1756,9.6965,0.103,-0.4543,-0.2521,-0.0101,25.92
3971,1871,0.9266,9.5457,-0.2466,-0.3008,-0.2097,0.0069,25.92
3981,1849,0.9122,9.3158,0.0694,-0.1689,-0.1927,0.0101,25.92
3985,1839,0.8954,9.2057,0.1939,-0.126,-0.215,0.0003,25.92
3995,1808,0.7805,9.2775,0.7254,-0.0314,-0.3243,-0.0248,25.91
4005,1842,0.5339,9.3206,0.9601,0.0733,-0.4399,-0.0325,25.91
4015,1807,0.3448,9.4044,1.1564,0.2161,-0.5268,-0.0346,25.92
4025,1890,0.1867,9.3565,0.8787,0.3643,-0.5454,-0.0373,25.89
4035,1898,0.2658,9.4427,0.5148,0.4882,-0.4836,-0.0381,25.9
4045,1933,0.3304,9.5648,0.1006,0.4898,-0.3648,-0.0365,25.91
4055,2002,0.6512,10.4004,0.5195,0.5332,-0.2915,-0.0077,25.92
4065,2015,0.9337,10.9942,0.7183,0.6241,-0.3067,-0.0248,25.93
4075,1995,1.0726,11.4203,0.7829,0.6494,-0.3656,-0.0842,25.92
4085,2055,1.0415,11.6598,0.8595,0.579,-0.4607,-0.1447,25.92
4095,2113,0.8212,11.6789,0.8308,0.4149,-0.526,-0.1799,25.9
4105,2158,0.6512,11.7316,0.8547,0.222,-0.4956,-0.2089,25.9
4115,2167,0.6416,11.9183,0.9792,0.0847,-0.3762,-0.2382,25.92
4125,2223,0.9146,12.2487,1.0463,0.0922,-0.2441,-0.2587,25.91
4135,2297,1.3072,12.6558,0.9385,0.2081,-0.1431,-0.2513,25.92
4145,2321,1.7789,13.0747,1.1013,0.3856,-0.0986,-0.2238,25.92
4155,2315,2.3343,13.3812,1.7717,0.5564,-0.1415,-0.2012,25.93
4165,2329,2.5331,13.2639,2.5091,0.6259,-0.2507,-0.1759,25.92
4175,2356,2.648,12.9646,3.3519,0.5913,-0.3405,-0.1612,25.92
4185,2313,2.5474,12.1985,3.8188,0.4362,-0.3496,-0.1676,25.92
4195,2333,2.399,11.2767,4.2114,0.1282,-0.267,-0.1713,25.91
4205,2268,2.332,10.4196,4.6615,-0.2835,-0.1295,-0.1359,25.92
4215,2201,2.5235,9.7803,5.296,-0.6622,0.0037,-0.1085,25.92
4225,2122,2.7677,9.2057,5.7293,-0.886,0.0981,-0.134,25.93
4235,2032,2.9353,8.7269,6.0741,-0.906,0.1298,-0.1836,25.93
4245,1945,3.1029,8.1427,5.8897,-0.6888,0.0877,-0.2579,25.92
4255,1903,3.1963,7.604,5.2648,-0.3035,-0.0139,-0.3605,25.93
4265,1890,3.2633,7.082,4.2545,0.1652,-0.2006,-0.4636,25.93
4275,1899,3.2346,6.4979,2.9473,0.5785,-0.4916,-0.5423,25.92
4285,1921,3.1651,5.9065,1.6927,0.7951,-0.9201,-0.5822,25.93
4295,1910,3.0718,5.4899,0.8045,0.7266,-1.4482,-0.5468,25.92
4305,1904,2.9904,5.521,0.4549,0.4016,-1.9705,-0.469,25.91
4315,1901,2.7198,6.1076,0.735,-0.0373,-2.3707,-0.3976,25.92
4325,1909,2.1763,7.2712,1.4006,-0.4698,-2.5618,-0.3248,25.9
4335,1925,1.3575,8.983,2.1069,-0.8239,-2.4749,-0.2465,25.92
4345,1930,0.4334,10.987,2.7821,-1.0688,-2.1634,-0.1263,25.94
4355,1953,-0.2035,12.8162,3.5243,-1.1642,-1.7893,-0.0147,25.94
4365,1991,-0.5171,13.9917,4.3144,-1.0658,-1.4693,0.0245,25.93
4375,2035,-0.8212,14.0779,4.4796,-0.7973,-1.2412,-0.0168,25.94
4379,2041,-0.8452,13.8792,4.5131,-0.6707,-1.1698,-0.0325,25.93
4389,2065,-0.6488,13.1657,4.5418,-0.2699,-1.0285,-0.0946,25.92
4399,2096,-0.4549,12.2966,3.9002,0.2497,-0.8516,-0.1932,25.92
4409,2082,-0.3208,11.0995,2.7845,0.7674,-0.5638,-0.2726,25.92
4419,2063,-0.2083,9.5936,1.3815,1.2209,-0.2308,-0.3251,25.92
4429,2134,-0.1245,7.9799,-0.1245,1.5223,0.069,-0.3581,25.91
4439,2127,0.2274,6.3686,-1.3168,1.59,0.2803,-0.3182,25.94
4449,2175,0.8739,4.853,-1.9297,1.4424,0.3786,-0.2795,25.92
4459,2267,1.3862,3.7302,-1.9154,1.1066,0.3315,-0.2385,25.93
4469,2278,1.9154,3.3998,-1.5778,0.6688,0.1356,-0.1407,25.93
4479,2336,2.1763,4.2066,-1.0247,0.3517,-0.1364,-0.0901,25.94
4489,2345,2.0111,4.9488,-0.929,0.1015,-0.3712,-0.0709,25.93
4499,2254,1.6568,5.3965,-0.8859,-0.1921,-0.567,-0.036,25.93
4509,2060,1.1372,5.8658,-0.7685,-0.4954,-0.7019,-0.0011,25.95
4519,1921,0.577,6.4404,-0.6464,-0.7789,-0.7514,0.0381,25.94
4529,1968,-0.0048,7.2496,-0.2849,-1.0072,-0.6976,0.0714,25.95
4539,1920,-0.5267,8.193,0.1484,-1.1066,-0.538,0.1063,25.93
4549,1925,-0.8954,9.1674,0.4597,-1.1,-0.2859,0.1386,25.92
4559,1920,-0.9601,10.0245,0.723,-0.9918,0.0128,0.1607,25.94
4569,1884,-0.7087,10.5704,1.075,-0.7794,0.3184,0.1692,25.96
4579,1875,-0.2442,10.7931,1.2953,-0.4636,0.6065,0.17,25.97
4589,1939,0.3783,10.6398,1.233,-0.0973,0.8503,0.1713,25.94
4599,1723,0.9864,10.2328,1.063,0.2582,1.0285,0.1687,25.94
4609,1599,1.4485,9.675,0.723,0.583,1.1042,0.1705,25.94
4619,2377,1.8579,8.9447,0.2418,0.8543,1.0733,0.1628,25.93
4629,4095,2.0949,8.3486,-0.3903,1.06,0.9747,0.1354,25.93
4639,4095,2.1859,7.8745,-0.9649,1.1692,0.8354,0.0962,25.95
4649,2400,2.1691,7.4867,-1.4078,1.133,0.6749,0.0552,25.94
4659,1363,2.0925,7.3622,-1.4389,0.9614,0.5135,0.0008,25.95
4669,1968,2.0734,7.6255,-0.9888,0.7155,0.3211,-0.0642,25.94
4679,1922,1.9058,8.7221,-0.6369,0.571,0.1511,-0.1383,25.94
4689,1920,1.6975,9.6295,-0.6656,0.4842,0.1063,-0.1953,25.93
4699,1886,1.7789,10.343,-0.5483,0.3392,0.0967,-0.2276,25.94
4709,1930,1.9417,10.9056,-0.1676,0.1327,0.0765,-0.2342,25.94
4719,1811,2.0901,11.3701,0.4334,-0.0869,0.0016,-0.2193,25.94
4729,2017,2.1811,11.6574,1.0582,-0.3059,-0.1383,-0.166,25.94
4739,2064,2.1213,11.8345,1.64,-0.4506,-0.3184,-0.1098,25.92
4749,2027,1.7765,11.9638,1.9106,-0.4266,-0.4692,-0.0671,25.93
4759,2070,1.1061,12.0452,1.5754,-0.2614,-0.5484,-0.0544,25.93
4769,2045,0.3256,12.2368,1.1157,-0.0663,-0.5462,-0.0522,25.96
4773,2107,0.0622,12.3804,0.9816,0.0059,-0.5204,-0.0576,25.95
4783,2096,-0.3017,12.7132,0.9577,0.1346,-0.4162,-0.0898,25.95
4793,2071,-0.3376,12.7946,1.4054,0.149,-0.3134,-0.1295,25.94
4803,2141,-0.17,12.5193,2.1668,0.0312,-0.2172,-0.1676,25.96
4813,2224,0.3041,12.0979,3.1316,-0.1993,-0.137,-0.1471,25.94
4823,2070,0.7518,11.2312,4.1492,-0.5031,-0.1348,-0.1053,25.95
4833,2160,0.814,10.5584,4.8411,-0.8172,-0.1713,-0.0477,25.97
4843,2211,0.6967,9.9048,5.296,-1.0435,-0.1077,0.0855,25.96
4853,2128,0.3496,9.4834,5.5474,-1.0954,0.045,0.2443,25.96
4863,2141,-0.1939,9.2751,5.0781,-0.9755,0.2737,0.4386,25.96
4873,2160,-0.6608,9.0381,4.0199,-0.7115,0.5313,0.6198,25.95
4883,2177,-1.0295,8.655,2.4804,-0.3331,0.7797,0.7392,25.94
4893,2106,-1.1947,8.1547,0.8978,0.0874,0.9939,0.7725,25.94
4903,2054,-0.8954,7.671,-0.5004,0.4021,1.1658,0.6635,25.95
4913,1980,-0.7709,7.4029,-0.6249,0.5153,1.2854,0.4373,25.94
4923,1936,-0.3926,7.3981,0.0958,0.4791,1.3358,0.2089,25.96
4933,1755,0.3041,7.7117,0.9673,0.255,1.3787,-0.0077,25.95
4943,1762,1.1827,8.4922,1.9369,-0.1729,1.4091,-0.1953,25.97
4953,1729,1.8747,9.663,3.0502,-0.688,1.4016,-0.2827,25.96
4963,1712,2.4014,11.1378,4.0055,-1.1319,1.3632,-0.2124,25.97
4973,1701,2.9928,12.6438,4.8291,-1.3933,1.3608,0.0083,25.96
4983,1681,3.5721,13.8672,5.4875,-1.4202,1.3694,0.32,25.95
4993,1703,4.0869,14.2623,5.7748,-1.2252,1.311,0.6297,25.94
5003,1699,4.4365,13.5248,5.7772,-0.8087,1.1663,0.833,25.93
5013,1789,4.6424,12.4259,5.703,-0.1887,0.8572,0.8551,25.94
5023,1819,4.2521,11.2575,4.9967,0.5524,0.4255,0.756,25.95
5033,1812,3.1987,9.7995,3.3375,1.2292,0.02,0.6022,25.94
5043,1799,1.6688,8.0924,1.5467,1.6667,-0.1865,0.4346,25.96
5053,1839,0.0622,6.2872,0.0263,1.8383,-0.2222,0.2579,25.95
5063,1729,-1.4054,4.7669,-1.1995,1.7104,-0.126,0.089,25.95
5073,1922,-2.3774,3.62,-1.9225,1.2985,0.0568,-0.0083,25.96
5083,1886,-2.8228,2.873,-2.1715,0.6829,0.2169,-0.0402,25.95
5093,1816,-2.7246,2.6624,-1.9656,-0.0474,0.2968,-0.025,25.93
5103,1823,-2.2146,2.9329,-1.3671,-0.7719,0.2987,0.029,25.94
5113,1830,-1.4174,3.6176,-0.6129,-1.3627,0.2641,0.0866,25.95
5123,1834,-0.589,4.6424,0.1197,-1.7501,0.2132,0.1258,25.95
5133,1895,0.0503,6.0238,0.7422,-1.9191,0.1828,0.1559,25.96
5143,1969,0.5363,7.3813,1.336,-1.8794,0.1751,0.1772,25.96
5153,1995,0.8045,8.6407,1.8699,-1.6827,0.1641,0.1793,25.97
5163,2112,0.8212,9.6726,2.2721,-1.3792,0.1476,0.1764,25.97
5167,2127,0.759,9.979,2.4062,-1.234,0.1399,0.1732,25.97
5177,2113,0.4693,10.5704,2.6049,-0.8255,0.1239,0.1633,25.97
5187,2227,0.0215,10.7691,2.4732,-0.3946,0.1226,0.1591,25.97
5197,1999,-0.3136,10.4675,1.8986,-0.0464,0.1548,0.1474,25.96
5207,1846,-0.5267,9.9838,1.312,0.1785,0.2145,0.1431,25.96
5217,1748,-0.5698,9.3781,0.7829,0.3014,0.2795,0.1458,25.96
5227,1808,-0.5483,8.7939,0.4477,0.3325,0.3331,0.1652,25.95
5237,1856,-0.5076,8.1954,0.3687,0.2896,0.3656,0.2033,25.97
5247,1802,-0.5052,7.7859,0.6321,0.2052,0.3627,0.2401,25.97
5257,1802,-0.6321,7.7093,0.972,0.1092,0.3459,0.2806,25.97
5267,1895,-0.6704,8.0661,1.4676,0.0834,0.3531,0.3072,25.97
5277,1785,-0.6081,8.6095,1.8579,0.1311,0.3485,0.3312,25.96
5287,1744,-0.589,9.2105,1.9824,0.2121,0.3485,0.3672,25.94
5297,1589,-0.5507,9.9359,1.8028,0.2771,0.3776,0.3912,25.96
5307,2045,-0.3807,10.7212,1.4006,0.3176,0.4298,0.3869,25.95
5317,4095,0.0383,11.4299,0.9194,0.3072,0.457,0.3429,25.95
5327,4095,0.4405,11.959,0.3783,0.2819,0.4663,0.2734,25.96
5337,2962,0.6081,12.2487,-0.0383,0.2332,0.5076,0.2108,25.97
5347,1281,0.7709,12.402,0.1508,0.206,0.5878,0.1897,25.96
5357,1792,1.0678,12.4594,0.7566,0.2478,0.6667,0.1964,25.96
5367,1835,1.4341,12.3637,1.4748,0.3171,0.7125,0.247,25.97
5377,1751,1.7933,12.4379,2.1093,0.4205,0.7139,0.3246,25.96
5387,1680,1.6424,12.651,2.5881,0.469,0.6765,0.466,25.96
5397,1752,1.719,13.0269,3.0311,0.3776,0.6177,0.6534,25.96
5407,1706,1.8004,13.1968,3.6057,0.1183,0.563,0.7642,25.96
5417,1718,1.7526,13.058,4.537,-0.1599,0.5305,0.793,25.96
5427,1700,1.8268,12.5528,5.5019,-0.3621,0.5052,0.7554,25.95
5437,1705,1.719,11.9351,6.3877,-0.4588,0.4852,0.6981,25.97
5447,1741,1.5443,11.2073,7.1443,-0.4413,0.478,0.6318,25.97
5457,1775,1.3192,10.3334,7.4555,-0.2777,0.4663,0.5502,25.98
5467,1793,0.9361,9.0046,6.6679,-0.0885,0.4618,0.4906,25.98
5477,1855,0.9409,7.6136,5.6886,0.1468,0.5241,0.4551,25.98
5487,1903,1.2833,6.5745,4.3574,0.474,0.6323,0.3096,25.98
5497,1847,1.5203,5.8754,2.7797,0.7986,0.7906,0.0999,25.98
5507,1924,1.8172,5.2361,1.5299,1.0339,0.8873,-0.0954,25.98
5517,1987,2.0806,4.5442,0.9864,1.1703,0.7957,-0.239,25.98
5527,1994,2.308,4.1084,0.9529,1.1679,0.4839,-0.2707,25.98
5537,2034,2.4014,3.9289,1.2594,0.9177,0.028,-0.1937,25.97
5547,2058,2.1476,4.2473,1.7454,0.4604,-0.3709,-0.0416,25.97
5557,1960,1.7454,5.1092,2.3296,-0.0874,-0.5814,0.1394,25.96
5561,1978,1.5514,5.6048,2.4684,-0.3254,-0.6219,0.2161,25.97
5571,1998,0.9888,7.0485,2.5953,-0.9856,-0.6011,0.4506,25.98
5581,1893,0.2274,8.6335,2.7318,-1.7293,-0.3768,0.744,25.97
5591,2005,-0.4022,10.6039,3.1532,-2.3566,0.0554,0.9782,25.97
5601,2059,-0.7374,12.6773,3.8211,-2.647,0.6427,1.0229,25.97
5611,1961,-0.668,14.2575,4.4556,-2.569,1.1698,0.8679,25.95
5621,1846,-0.3136,15.2654,5.138,-2.1091,1.5839,0.578,25.97
5631,1908,0.0335,14.9757,5.1451,-1.3531,1.6942,0.3347,25.97
5641,1861,0.2777,13.1106,4.0151,-0.632,1.586,0.2286,25.97
5651,1783,0.2251,10.908,2.2505,-0.0839,1.541,0.1537,25.98
5661,1779,0.3328,9.2201,0.9984,0.3022,1.6689,0.0733,25.98
5671,1742,0.5938,8.1618,0.2753,0.5169,1.8554,0.0312,25.96
5681,1745,0.9649,7.6495,0.1724,0.6579,2.0123,0.134,25.97
5691,1726,1.6879,7.1323,0.5986,0.7394,2.0688,0.377,25.98
5701,1779,2.1835,6.6248,1.3719,0.7613,1.947,0.5969,25.99
5711,1690,1.9896,6.2225,1.9752,0.7128,1.7608,0.7536,25.99
5721,1703,1.7861,5.8754,2.6169,0.5947,1.5391,0.854,25.97
5731,1747,1.4916,5.8586,3.1316,0.4493,1.3137,0.9041,25.97
5741,1680,1.4006,6.3135,3.3351,0.2987,1.1141,0.8953,25.97
5751,1722,1.0295,6.8809,3.3327,0.15,0.988,0.8327,25.98
5761,1715,0.5076,7.4053,3.134,0.0357,0.9795,0.7767,25.97
5771,1702,0.1197,7.9009,2.9161,-0.0136,1.0733,0.7325,25.96
5781,1702,-0.1532,8.2001,2.5594,0.0139,1.2204,0.6861,25.97
5791,1750,-0.2155,8.2241,2.2769,0.0655,1.3984,0.6486,26
5801,1781,0.1053,8.0254,2.1691,0.1034,1.5316,0.6251,26.01
5811,1751,0.4932,7.8793,2.2338,0.1471,1.6062,0.6046,26
5821,1792,0.8643,7.6806,2.4636,0.2004,1.6561,0.5979,25.99
5831,1894,1.2641,7.5058,2.7773,0.2481,1.6515,0.6014,25.99
5841,1945,1.5371,7.2712,2.9928,0.288,1.6233,0.6123,26
5851,2047,1.8004,6.9719,3.1771,0.2968,1.6137,0.6158,25.99
5861,2062,2.059,6.8259,3.2322,0.271,1.619,0.6006,26
5871,2043,2.2218,6.7564,3.158,0.206,1.6395,0.5788,26
5881,1852,2.3631,6.8378,3.0215,0.109,1.6707,0.547,26
5891,1727,2.4517,7.1754,2.8132,0.0035,1.6729,0.5113,26.01
5901,1694,2.4373,7.7955,2.4277,-0.0512,1.6467,0.4791,25.99
5911,1718,2.3439,8.6359,1.7861,-0.0229,1.5628,0.4679,26.01
5921,1791,2.1356,9.4667,1.1516,0.0781,1.4586,0.4756,25.99
5931,1814,1.8196,10.2687,0.4597,0.2406,1.3459,0.4823,26
5941,1853,1.549,10.8362,0.1101,0.4141,1.27,0.4898,25.99
5951,1858,1.2665,11.0971,0.2514,0.5833,1.2367,0.4991,25.99
5955,1820,1.1851,11.1474,0.5124,0.6539,1.2225,0.4943,25.99
5965,1891,0.9529,11.0708,1.2977,0.8436,1.17,0.4778,25.98
5975,1822,0.7614,10.7978,2.3631,0.9992,1.093,0.4562,25.99
5985,1557,0.486,10.3358,3.0358,1.0922,1.016,0.4032,26.01
5995,2201,0.1389,9.8306,3.4069,1.0339,0.9718,0.3573,25.99
6005,4095,-0.1341,9.4643,3.3471,0.8218,0.9651,0.2795,25.99
6015,4095,-0.4118,9.4236,3.0143,0.4826,1.015,0.1948,25.98
6025,2944,-0.3926,9.7564,2.5522,0.1042,1.1381,0.1426,26
6035,1427,0.0934,10.829,2.4301,-0.0887,1.2774,0.0506,25.99
6045,1937,0.565,11.8609,2.4038,-0.1271,1.3606,-0.0176,26
6055,1815,1.0558,12.4068,2.6169,-0.0874,1.4117,-0.0389,25.98
6065,1949,1.5634,12.3589,3.2944,-0.0464,1.4938,-0.0312,25.99
6075,1851,2.1452,11.8298,4.4772,-0.0778,1.5524,-0.0107,25.99
6085,1885,2.4157,11.0684,5.7365,-0.2078,1.5036,0.0525,26.01
6095,1954,2.2745,10.1586,6.6631,-0.4098,1.3531,0.1721,26.03
6105,1934,1.7957,9.2823,7.185,-0.5889,1.2132,0.3448,26.02
6115,1902,1.3048,8.8011,7.0485,-0.5529,1.1796,0.5236,26.01
6125,2000,0.5052,8.5856,5.7389,-0.3493,1.2441,0.6273,26.02
6135,2018,-0.7207,8.4635,3.0311,0.008,1.4048,0.7117,26.02
6145,2015,-2.1907,8.1307,-0.9122,0.381,1.7261,0.8322,26
6155,2243,-3.2657,7.501,-2.7102,0.6251,2.1365,1.0155,25.99
6165,2256,-3.3543,7.0318,-1.4772,0.7522,2.3976,1.1743,26
6175,2191,-2.8299,7.2472,1.1708,0.8652,2.4986,1.1064,26.01
6185,2176,-2.1045,7.3861,3.5362,0.8191,2.497,0.8378,26
6195,2243,-1.0774,7.616,5.3367,0.5641,2.4618,0.4319,26.02
6205,2160,-0.0192,7.9535,6.3207,0.0258,2.411,-0.0077,26.01
6215,2128,1.3431,8.4108,7.2065,-0.6979,2.3851,-0.3629,26
6225,2288,2.5379,9.347,7.8266,-1.3968,2.388,-0.55,26
6235,2259,3.6176,11.2025,7.8362,-1.894,2.403,-0.4037,26
6245,2260,4.8195,13.5248,7.1682,-2.0667,2.3547,-0.0179,25.99
6255,2313,5.5809,15.2128,6.9552,-1.8985,2.1655,0.4343,26.02
6265,2322,5.2912,15.4713,6.7971,-1.2391,1.7882,0.8183,25.99
6275,2309,4.4365,14.6812,6.8139,-0.0634,1.3699,1.1082,26
6285,2284,3.316,13.2447,6.3422,1.3787,0.9425,1.2612,26
6295,2183,1.9345,11.2599,5.2984,2.6569,0.6371,1.2934,26
6305,2128,0.4621,9.0501,3.4812,3.5058,0.473,1.2079,26
6315,2019,-1.0056,6.7564,1.2067,3.808,0.5644,1.0475,26.01
6325,1994,-2.2314,4.6448,-0.7159,3.6274,0.8258,0.8122,26.01
6335,1945,-2.8491,2.727,-1.9297,3.0057,1.0363,0.409,26.02
6345,1939,-3.3351,1.6879,-2.3822,2.0478,1.1655,0.0349,25.99
6349,1929,-3.3686,1.4772,-2.3128,1.6158,1.1972,-0.0477,25.99
6359,1925,-2.9018,1.3886,-1.6664,0.5119,1.243,-0.1148,26.01
6369,1917,-1.9345,1.9369,-0.7685,-0.4287,1.2433,-0.0725,26.01
6379,1925,-0.929,2.727,-0.0551,-1.1295,1.2788,0,26
6389,1970,0.0383,3.8044,0.6752,-1.5519,1.3427,0.0783,26.01
6399,1886,1.0989,5.1212,1.391,-1.6928,1.3819,0.1519,26.02
6409,1942,2.1572,6.4955,1.9106,-1.594,1.3603,0.1953,26.03
6419,1999,2.8539,7.9009,1.98,-1.3571,1.2628,0.2398,26
6429,2001,3.2394,8.9878,1.9848,-1.0587,1.0928,0.2742,26
6439,1998,3.3112,9.7205,2.1284,-0.7554,0.8724,0.2872,26.01
6449,2021,2.9329,10.0892,2.1404,-0.473,0.6526,0.2766,26.02
6459,1991,2.3152,10.1203,2.1332,-0.243,0.462,0.2454,26.01
6469,1987,1.6448,9.9479,2.1213,-0.0581,0.2587,0.2129,26
6479,2013,0.9026,9.5816,1.901,0.1013,0.0682,0.1895,26.01
6489,1982,0.2274,9.1363,1.5706,0.2361,-0.0602,0.162,26
6499,2023,-0.2849,8.8298,1.2186,0.34,-0.0914,0.1191,26
6509,2167,-0.644,8.8442,0.8475,0.4247,-0.0509,0.0885,26.01
6519,2232,-0.723,9.0261,0.4741,0.4698,0.0514,0.0805,26.02
6529,2237,-0.5794,9.3494,0.2155,0.4588,0.1785,0.0983,26.02
6539,2282,-0.0527,9.9264,0.3496,0.4151,0.287,0.146,26
6549,2102,0.5794,10.635,0.4094,0.3592,0.3142,0.2028,26.01
6559,1921,0.9313,11.2432,0.2298,0.2571,0.2982,0.2697,26.01
6569,1891,1.0319,11.6191,0.1269,0.1178,0.2667,0.3336,26
6579,1845,0.8954,11.88,0.2705,0.0285,0.2353,0.3792,26.02
6589,1827,0.6033,11.9662,0.5842,0.028,0.2398,0.3986,26.02
6599,1888,0.2562,11.9183,1.0032,0.0738,0.2798,0.389,25.99
6609,1861,0.1604,11.9207,1.5419,0.1617,0.3024,0.3461,26.02
6619,1917,0.4717,11.7843,1.731,0.2393,0.2566,0.2886,26.01
6629,1968,0.9433,11.734,1.6975,0.2832,0.174,0.234,26
6639,1937,1.3384,11.8345,1.4006,0.2561,0.0922,0.1927,26.01
6649,1776,1.6879,12.0189,1.4246,0.1063,0.0336,0.1887,26.02
6659,1553,2.1141,12.1458,2.5307,-0.0845,-0.0293,0.2105,26.02
6669,3280,2.3727,12.2296,4.1228,-0.1801,-0.109,0.2569,26.03
6679,4095,2.4086,12.0859,5.3654,-0.1703,-0.1138,0.3139,26.03
6689,4095,2.2865,11.7244,6.0956,-0.1692,0.0099,0.3584,26.02
6699,1773,2.0734,11.1809,6.8139,-0.2198,0.1529,0.3288,26.01
6709,1618,1.8292,10.635,7.4005,-0.2603,0.287,0.2787,26.02
6719,1895,1.834,9.9096,7.6734,-0.2467,0.3485,0.1668,26
6729,1891,1.8004,9.4571,7.4484,-0.0807,0.2907,0.0136,26.01
6739,1902,1.8292,9.0812,6.5577,0.2547,0.1178,-0.1537,26.01
6743,1904,1.8244,8.8298,5.9664,0.4178,0.0264,-0.2185,26.01
6753,1916,1.7765,7.9583,4.1396,0.8154,-0.1913,-0.3714,26.03
6763,1906,1.5778,6.9336,2.3511,1.1226,-0.3339,-0.5012,26.02
6773,1913,1.5155,5.9161,0.9481,1.2513,-0.4453,-0.5612,26.03
6783,1920,1.6161,4.9991,0.0407,1.1506,-0.5897,-0.5809,26.01
6793,1963,1.731,4.8842,0.1173,0.8415,-0.7608,-0.5478,26.02
6803,2007,1.8555,5.5522,0.905,0.4946,-0.9761,-0.4514,26.03
6813,2046,1.9848,6.3303,1.9824,0.0655,-1.2609,-0.2944,26.02
6823,2013,1.8387,7.2137,2.9449,-0.4125,-1.5228,-0.1026,26.01
6833,2045,1.4102,8.2768,3.6272,-0.8721,-1.6531,0.101,26
6843,2119,0.8404,9.7205,4.0725,-1.2049,-1.5956,0.2878,26.01
6853,2096,0.1939,11.2456,4.2904,-1.3624,-1.3323,0.4021,26.02
6863,2176,-0.4022,12.6103,4.367,-1.319,-0.8817,0.3922,26.03
6873,2169,-0.8404,13.3405,4.3335,-1.0307,-0.3624,0.2659,26.03
6883,2245,-1.2043,12.6605,3.8044,-0.6744,0.0869,0.0821,26.02
6893,2329,-1.2665,11.8154,3.7206,-0.275,0.3581,-0.0733,26.01
6903,2187,-1.1923,11.0732,3.6176,0.2137,0.4682,-0.1516,26.02
6913,2262,-0.893,10.1107,3.0287,0.6736,0.4855,-0.1599,26.03
6923,2256,-0.3974,8.9878,2.0973,1.0232,0.4756,-0.1593,26.02
6933,2185,0.1532,7.9895,1.0391,1.2145,0.4988,-0.1391,26.01
6943,2253,0.838,7.1682,0.1556,1.2636,0.5713,-0.117,26.03
6953,1968,1.6783,6.6128,-0.51,1.1892,0.6965,-0.1023,26.03
6963,1919,2.4636,6.3135,-0.9984,0.9942,0.8764,-0.0632,26.02
6973,1808,3.0837,6.1699,-1.1971,0.6928,1.0533,-0.0088,26.03
6983,1777,3.3399,6.1746,-1.0487,0.3211,1.1668,0.0568,26.02
6993,1781,3.2609,6.1818,-0.5339,-0.0346,1.1852,0.1274,26.04
7003,1698,2.8539,6.2704,0.4046,-0.2654,1.0976,0.1751,26.04
7013,1643,2.332,6.3207,1.4054,-0.3104,0.842,0.2078,26.05
7023,1690,1.7502,6.6272,1.9968,-0.1756,0.4557,0.2318,26.03
7033,1708,1.0702,6.9839,2.0111,0.0266,0.0754,0.2348,26.02
7043,1663,0.3903,7.2592,1.7645,0.1937,-0.1793,0.2273,26.03
7053,1664,-0.2155,7.4316,1.3024,0.2878,-0.219,0.1977,26.03
7063,1655,-0.5818,7.5465,0.8715,0.32,-0.0533,0.1412,26.02
7073,1625,-0.6823,7.7237,0.565,0.3171,0.238,0.0733,26.04
7083,1723,-0.5411,7.9248,0.2658,0.2974,0.5915,0.0296,26.05
7093,1698,-0.0168,7.9942,0.0479,0.2606,0.9332,-0.0069,26.05
7103,1651,0.6536,8.0517,0.0431,0.2337,1.1778,-0.0416,26.04
7113,1659,1.324,8.1331,0.1125,0.2361,1.2822,-0.0562,26.04
7123,1661,1.9154,8.3007,0.1101,0.2625,1.2561,-0.0456,26.04
7133,1648,2.3631,8.5234,0.0383,0.3024,1.1282,-0.0133,26.03
7137,1631,2.4588,8.6407,0.012,0.3214,1.0635,0.0037,26.04
7147,1674,2.6839,8.904,-0.0287,0.3613,0.8884,0.033,26.04
7157,1678,2.66,9.256,-0.0622,0.3813,0.7189,0.052,26.05
7167,1713,2.5929,9.6462,0.0359,0.3648,0.5809,0.0584,26.04
7177,1802,2.49,10.0317,0.0622,0.3043,0.4772,0.0538,26.04
7187,1839,2.3679,10.3765,0.182,0.2025,0.3864,0.0325,26.05
7197,1870,2.2673,10.6279,0.2705,0.0821,0.2947,-0.0003,26.04
7207,1953,2.0949,10.8409,0.4262,-0.0216,0.2009,-0.048,26.03
7217,1956,1.7837,10.9798,0.6776,-0.1023,0.1037,-0.0999,26.03
7227,1744,1.4461,11.1713,1.0487,-0.1284,0.0141,-0.1306,26.04
7237,1641,1.1205,11.3437,1.2282,-0.0845,-0.0245,-0.15,26.07
7247,1575,0.8763,11.394,1.2881,-0.0093,-0.0176,-0.13,26.04
7257,1561,0.7518,11.564,1.1037,0.0981,0.0328,-0.101,26.04
7267,1590,0.5866,11.9686,0.5866,0.1804,0.1391,-0.0957,26.04
7277,1611,0.3376,12.3684,0.2298,0.162,0.2755,-0.0701,26.04
7287,1629,0.5052,12.7515,0.3735,0.0274,0.4226,-0.0634,26.02
7297,1722,0.8164,12.955,1.3048,-0.1535,0.5502,-0.089,26.03
7307,1763,1.1229,12.8281,2.7629,-0.3198,0.6177,-0.1212,26.03
7317,1804,1.3815,12.4522,4.2234,-0.4493,0.571,-0.1482,26.05
7327,1569,1.403,11.8824,5.3774,-0.55,0.4602,-0.1124,26.05
7337,1452,1.3455,11.3102,6.1794,-0.6233,0.3243,-0.0218,26.05
7347,3398,1.1396,10.8673,6.5338,-0.6339,0.1687,0.097,26.04
7357,4095,0.9864,10.4148,6.2249,-0.5292,0.0346,0.2345,26.05
7367,4095,0.7254,10.0102,5.1044,-0.332,-0.0472,0.3296,26.06
7377,1232,-0.0024,9.5792,3.5314,-0.0096,-0.036,0.4242,26.05
7387,1694,-0.7877,8.9471,1.5682,0.4319,0.1258,0.5494,26.06
7397,1857,-1.2402,8.0828,-0.6249,0.838,0.4615,0.6219,26.04
7407,1773,-1.403,7.082,-1.9106,1.0112,0.9697,0.5726,26.05
7417,1734,-1.1468,6.3063,-1.3934,0.9385,1.4397,0.4122,26.04
7427,1737,-0.4549,6.0478,0.2969,0.7234,1.7285,0.1977,26.04
7437,1774,0.6464,6.2704,1.8818,0.3595,1.8109,-0.0592,26.06
7447,1750,1.6664,7.0437,3.1963,-0.1657,1.7139,-0.3104,26.05
7457,1855,2.5115,8.3342,4.3167,-0.7418,1.4895,-0.4754,26.04
7467,1839,3.1699,10.0197,5.0829,-1.1807,1.1807,-0.4922,26.04
7477,1823,3.6966,11.9255,5.2672,-1.3462,0.8655,-0.3621,26.04
7487,1825,4.0845,13.4219,4.9081,-1.2724,0.6379,-0.1492,26.06
7497,1891,4.4484,14.2359,4.5059,-0.9846,0.4578,0.13,26.05
7507,1936,4.3024,13.805,4.118,-0.5116,0.38,0.3829,26.05
7517,1978,4.1946,12.8018,4.3551,0.1823,0.3949,0.5249,26.05
7527,2044,3.6631,11.6406,4.1515,0.9955,0.3523,0.5303,26.04
7531,2037,3.3495,11.0923,3.9002,1.2969,0.3046,0.5121,26.05
7541,2099,2.387,9.5074,2.9257,1.8932,0.1244,0.4541,26.04
7551,2109,1.3982,7.6112,1.4437,2.1951,-0.0608,0.3589,26.03
7561,2046,0.5794,5.7557,0.0024,2.1903,-0.166,0.2222,26.05
7571,2191,-0.2251,4.1755,-1.3623,1.8831,-0.2188,0.0645,26.06
7581,2145,-0.8021,3.1077,-2.3128,1.3153,-0.238,-0.0525,26.04
7591,2252,-1.1301,2.6145,-2.6504,0.587,-0.2598,-0.1178,26.06
7601,2149,-1.3886,2.7557,-2.4636,-0.166,-0.2774,-0.1178,26.05
7611,2101,-1.2043,3.4429,-1.6472,-0.7733,-0.307,-0.0919,26.05
7621,2159,-0.8954,4.4556,-1.0175,-1.1527,-0.3456,-0.0743,26.04
7631,2122,-0.4836,5.5761,-0.4477,-1.295,-0.3275,-0.0663,26.05
7641,2094,-0.012,6.6176,0.1556,-1.2383,-0.2547,-0.0698,26.06
7651,2010,0.3974,7.5585,0.723,-1.0501,-0.1548,-0.0877,26.04
7661,1975,0.7063,8.3246,1.1971,-0.7903,-0.0757,-0.1212,26.04
7671,2001,0.8571,8.9136,1.6592,-0.5276,-0.0418,-0.1537,26.05
7681,1936,0.9361,9.2392,1.9106,-0.3102,-0.0426,-0.1591,26.06
7691,1955,0.9313,9.3302,1.9585,-0.1668,-0.0645,-0.1351,26.06
7701,1925,0.8452,9.2512,1.7406,-0.1042,-0.1092,-0.0847,26.06
7711,2007,0.7518,9.1363,1.3312,-0.1015,-0.1865,-0.0168,26.04
7721,1947,0.5626,8.9591,0.6584,-0.1442,-0.2694,0.0533,26.04
7731,1936,0.3184,8.9232,-0.1006,-0.1966,-0.3536,0.0983,26.07
7741,1967,0.0335,8.9926,-0.7518,-0.2137,-0.4064,0.1124,26.06
7751,1963,-0.2083,9.1315,-1.0678,-0.1503,-0.4072,0.0957,26.05
7761,1942,-0.34,9.3685,-1.1779,0.0112,-0.3597,0.0682,26.05
7771,1934,-0.2298,9.6414,-1.0511,0.2086,-0.2577,0.04,26.05
7781,1917,0.1604,9.9599,-0.7614,0.3885,-0.1572,0.0131,26.07
7791,1891,0.5578,10.173,-0.5866,0.466,-0.1095,-0.0115,26.06
7801,1895,0.893,10.2783,-0.5004,0.3872,-0.0978,-0.0131,26.05
7811,1887,1.2378,10.4675,-0.4166,0.1695,-0.0885,-0.0144,26.06
7821,1869,1.6664,10.7859,-0.1125,-0.1298,-0.085,-0.0037,26.06
7831,1808,2.1117,11.303,0.4477,-0.4389,-0.0821,0.0048,26.06
7841,1833,2.4732,12.1051,1.1995,-0.6273,-0.0608,0.0056,26.07
7851,1972,2.6169,13.0005,1.5754,-0.6731,-0.0624,0.0301,26.05
7861,2019,2.6121,13.5177,1.5443,-0.5987,-0.1175,0.0941,26.05
7871,2086,2.5091,13.6517,1.5275,-0.3397,-0.1961,0.1756,26.06
7881,2125,2.3224,13.4578,1.2115,0.0869,-0.251,0.2433,26.05
7891,2135,2.1907,12.9814,0.8452,0.4445,-0.2758,0.2558,26.05
7901,1997,2.0183,12.7994,1.0702,0.5758,-0.3712,0.2382,26.07
7911,1832,1.7693,12.56,1.8148,0.5199,-0.5369,0.2214,26.06
7921,1780,1.494,12.0572,2.6911,0.3301,-0.6768,0.1676,26.06
7925,1751,1.3503,11.8298,3.0023,0.2329,-0.6936,0.1348,26.07
7935,1774,1.063,11.3222,3.972,-0.0597,-0.6542,0.0528,26.06
7945,1789,0.6847,11.0516,4.8147,-0.3712,-0.538,-0.0077,26.06
7955,1769,0.5243,10.8793,5.2984,-0.6955,-0.3667,-0.0325,26.07
7965,1774,0.6393,10.647,5.8035,-0.9502,-0.202,-0.0346,26.07
7975,1814,0.9792,10.2328,6.2991,-1.012,-0.0765,-0.036,26.07
7985,1829,1.2833,9.3685,6.4667,-0.8476,0.0256,-0.0629,26.07
7995,1845,1.5969,8.679,6.5984,-0.4178,0.0999,-0.1324,26.06
8005,1503,1.834,7.8793,5.9328,0.1849,0.1085,-0.2222,26.05
8015,2032,2.0423,6.8785,4.5681,0.7885,0.0618,-0.3262,26.07
8025,4095,2.1811,5.5043,2.648,1.2305,-0.0464,-0.413,26.08
8035,4095,2.2889,3.3662,0.4429,1.2279,-0.2398,-0.465,26.07
8045,3091,2.4445,3.4692,-0.3424,0.9838,-0.5057,-0.4727,26.07
8055,1394,2.6456,3.7158,-0.68,0.6771,-0.9848,-0.4056,26.07
8065,1918,2.6097,4.1755,-0.1341,0.1508,-1.5468,-0.3035,26.07
8075,1913,2.296,5.1763,0.8763,-0.4788,-2.023,-0.194,26.07
8085,1885,1.5969,6.9145,1.6017,-1.1106,-2.2751,-0.1061,26.06
8095,1888,0.656,9.2536,2.1763,-1.6851,-2.2356,0.0048,26.07
8105,1895,-0.1437,11.7675,2.806,-2.1903,-1.983,0.1164,26.06
8115,1920,-0.8068,14.0516,4.0582,-2.4666,-1.5673,0.1681,26.05
8125,1953,-1.1923,15.5743,5.5881,-2.2644,-1.0842,0.1452,26.07
8135,1973,-1.3815,16.0627,6.4907,-1.5743,-0.6611,0.0344,26.07
8145,2015,-1.5586,14.7794,5.7126,-0.7477,-0.3158,-0.0837,26.06
8155,2032,-1.585,13.2399,4.8267,0.0035,-0.0626,-0.1551,26.06
8165,2063,-1.3934,11.7029,3.8403,0.748,0.1239,-0.1871,26.08
8175,2109,-1.1277,9.9383,2.3248,1.3643,0.2793,-0.2006,26.07
8185,2112,-0.6584,7.9559,0.8906,1.7661,0.4314,-0.1988,26.07
8195,2086,-0.2322,6.3255,-0.3304,1.8975,0.5375,-0.1956,26.08
8205,2085,0.5435,4.8507,-1.3743,1.7229,0.6171,-0.137,26.07
8215,2158,1.4413,3.6919,-1.7621,1.2961,0.6789,-0.113,26.07
8225,2134,2.296,3.3232,-1.5419,0.7232,0.6432,-0.105,26.09
8235,2112,2.9497,4.1539,-0.8068,0.1935,0.4735,-0.0989,26.09
8245,2104,2.9904,5.2505,-0.4238,-0.149,0.3403,-0.0584,26.07
8255,2102,2.8898,6.0358,-0.2322,-0.4461,0.2521,0.0005,26.09
8265,2086,2.7007,6.6415,0.0718,-0.7059,0.1625,0.0485,26.08
8275,2128,2.3535,7.3502,0.4094,-0.8724,0.0496,0.0866,26.07
8285,2090,1.8507,8.1331,0.6153,-0.9332,-0.0709,0.1316,26.08
8295,2117,1.3479,8.8921,0.8092,-0.8692,-0.1452,0.1823,26.08
8305,2047,0.8859,9.5624,0.9361,-0.6784,-0.1223,0.215,26.08
8315,1914,0.5555,9.8617,1.0271,-0.4266,-0.0341,0.2236,26.07
8319,1875,0.4262,9.8785,1.0271,-0.3184,0.0101,0.2185,26.06
8329,1827,0.1915,9.651,0.8739,-0.0666,0.1292,0.1993,26.07
8339,1758,0.0479,9.0309,0.589,0.1324,0.2827,0.1777,26.08
8349,1725,0.0814,8.4707,0.3448,0.295,0.4823,0.1295,26.07
8359,1710,0.2586,8.1714,0.1053,0.4277,0.7123,0.0722,26.08
8369,1669,0.6153,8.0086,-0.1676,0.5156,0.9212,0.0093,26.08
8379,1674,1.0367,8.0254,-0.3855,0.5721,1.0669,-0.0362,26.07
8389,1693,1.4461,8.1666,-0.4764,0.6054,1.1114,-0.065,26.09
8399,1716,1.8004,8.4036,-0.4477,0.6187,1.0552,-0.0759,26.08
8409,1713,2.1907,8.7652,-0.2418,0.5873,0.9113,-0.0802,26.07
8419,1712,2.5402,9.268,0.1293,0.5185,0.6883,-0.0703,26.08
8429,1700,2.8683,9.7516,0.4645,0.4277,0.4567,-0.0679,26.07
8439,1712,3.0382,10.0628,0.5052,0.3022,0.2545,-0.0738,26.08
8449,1683,3.1963,10.2615,0.5052,0.1172,0.1018,-0.0941,26.09
8459,1648,3.2202,10.5728,0.565,-0.0973,-0.0336,-0.1327,26.09
8469,1685,2.9712,10.975,0.7638,-0.3448,-0.1857,-0.1495,26.07
8479,1667,2.4732,11.4251,1.0343,-0.559,-0.3576,-0.1215,26.09
8489,1703,1.8842,11.825,1.5634,-0.6678,-0.5369,-0.0498,26.09
8499,1665,1.1684,12.208,2.0949,-0.5585,-0.6742,0.0256,26.07
8509,1677,0.2274,12.4762,2.071,-0.2635,-0.6824,0.0925,26.08
8519,1656,-0.6081,12.6701,1.7885,0.0781,-0.5337,0.1258,26.09
8529,1805,-1.008,12.9598,1.7071,0.3659,-0.3112,0.0815,26.08
8539,1858,-0.9697,13.0436,1.9034,0.5028,-0.145,-0.004,26.08
8549,1882,-0.5674,12.7156,2.3798,0.4964,-0.0208,-0.1196,26.07
8559,1969,-0.1101,11.995,2.8252,0.3464,0.1156,-0.2321,26.09
8569,2041,0.51,11.133,3.5386,0.0866,0.2787,-0.2872,26.07
8579,1883,1.0678,10.4914,4.2353,-0.2145,0.3853,-0.2747,26.07
8589,1671,1.4485,10.0604,4.7645,-0.5308,0.4391,-0.1769,26.08
8599,1564,1.8603,9.6726,5.0685,-0.765,0.4501,-0.0019,26.07
8609,1553,2.0686,9.4068,5.0853,-0.8644,0.3595,0.194,26.07
8619,1641,2.15,9.1985,4.4173,-0.7885,0.2321,0.3954,26.08
8629,1673,1.6807,8.9423,3.6775,-0.4815,0.1085,0.5915,26.09
8639,1589,0.917,8.576,2.739,0.0344,0.049,0.7629,26.1
8649,1692,0.1628,7.9966,1.4198,0.6267,0.1252,0.8447,26.07
8659,1687,-0.5124,7.2975,0.1915,1.0658,0.3965,0.769,26.08
8669,1687,-0.9194,6.6702,-0.0934,1.2406,0.7493,0.5708,26.09
8679,1605,-0.7518,6.3542,0.3879,1.1231,1.0136,0.3064,26.07
8689,1329,-0.091,6.596,1.2258,0.7546,1.162,-0.0107,26.09
8699,2638,0.6393,7.3502,2.1141,0.2054,1.1927,-0.3222,26.09
8709,4095,1.3216,8.6862,2.8563,-0.3946,1.1588,-0.5284,26.08
8713,4095,1.585,9.3326,3.0885,-0.6091,1.1391,-0.574,26.07
8723,3414,2.0949,11.1211,3.462,-1.0456,1.0906,-0.5542,26.09
8733,1168,2.7414,12.8377,3.6464,-1.2753,1.0589,-0.3597,26.09
8743,1731,3.3854,14.1785,3.9911,-1.2127,1.0203,-0.0512,26.09
8753,1850,4.0558,14.6358,4.1061,-0.9028,0.8855,0.2721,26.1
8763,1803,4.1899,13.9007,3.984,-0.5108,0.6896,0.5249,26.1
8773,1811,4.1013,12.9095,4.2689,0.093,0.4791,0.6462,26.09
8783,1793,3.5243,11.801,3.984,0.8162,0.2252,0.6456,26.09
8793,1885,2.6217,10.2089,2.7773,1.4541,-0.0221,0.5838,26.09
8803,1904,1.4629,8.3606,1.2163,1.8562,-0.1841,0.4727,26.08
8813,1902,0.3184,6.3805,-0.3041,1.9726,-0.2627,0.3373,26.1
8823,1929,-0.6057,4.5681,-1.652,1.8013,-0.2619,0.1572,26.09
8833,1969,-1.2234,3.2274,-2.4277,1.3741,-0.1804,-0.0021,26.1
8843,1961,-1.5323,2.4948,-2.6456,0.7653,-0.1218,-0.1234,26.1
8853,2011,-1.415,2.5546,-1.9632,0.1023,-0.1617,-0.2012,26.1
8863,2002,-1.2186,3.3399,-1.1349,-0.4114,-0.3019,-0.2121,26.11
8873,2065,-0.9649,4.1013,-0.5962,-0.7592,-0.3675,-0.2097,26.1
8883,2133,-0.6249,4.9752,-0.067,-0.9982,-0.3491,-0.2012,26.1
8893,2158,-0.1891,6.0214,0.4812,-1.093,-0.2777,-0.17,26.11
8903,2163,0.2251,7.039,0.7757,-1.0744,-0.1788,-0.1343,26.12
8913,2246,0.5219,8.0182,0.9553,-0.9888,-0.0781,-0.0991,26.1
8923,2223,0.8547,8.8705,1.0989,-0.8828,-0.0517,-0.0616,26.09
8933,2227,0.9673,9.5289,1.1803,-0.7647,-0.1045,-0.0173,26.1
8943,2282,0.9768,9.912,1.2953,-0.6371,-0.182,0.0269,26.1
8953,2299,0.8523,10.0509,1.3767,-0.4796,-0.2393,0.0533,26.09
8963,2315,0.7278,9.9335,1.3599,-0.3054,-0.2582,0.041,26.09
8973,2283,0.4549,9.7827,1.1444,-0.1295,-0.2787,0.0051,26.11
8983,2246,0.0862,9.5888,0.6752,0.016,-0.2878,-0.0317,26.11
8993,2171,-0.2155,9.5553,0.2514,0.1583,-0.2569,-0.0717,26.09
9003,2147,-0.4717,9.5648,-0.1077,0.2904,-0.1743,-0.1021,26.09
9013,2120,-0.498,9.5816,-0.2083,0.3893,-0.0522,-0.1087,26.09
9023,2087,-0.4429,9.3206,-0.4094,0.3981,0.0682,-0.0893,26.11
9033,2064,-0.1867,9.4715,-0.1365,0.3507,0.1444,-0.0306,26.1
9043,2055,0.0144,9.8761,0.0838,0.328,0.1572,0.0413,26.1
9053,2096,0.1149,10.3406,0.0958,0.315,0.1503,0.114,26.11
9063,2045,0.2394,10.8649,-0.0263,0.2822,0.1745,0.1705,26.11
9073,2043,0.419,11.327,-0.0886,0.1863,0.2561,0.1737,26.09
9083,2029,0.5531,11.8082,-0.0072,0.0685,0.3738,0.1335,26.1
9093,1999,0.7661,12.0764,0.0168,-0.0354,0.4586,0.0727,26.09
9103,1990,0.996,12.1171,0.1125,-0.0941,0.4959,0.0304,26.09
9107,1979,1.1277,12.1099,0.249,-0.093,0.494,0.0237,26.1
9117,2071,1.5131,12.05,0.5794,-0.0211,0.4213,0.0392,26.09
9127,2031,1.664,12.1386,0.8523,0.1295,0.2944,0.0887,26.12
9137,1982,1.5993,12.2368,0.9744,0.2142,0.1695,0.1484,26.1
9147,1973,1.5371,12.3397,1.4269,0.1876,0.0759,0.1881,26.09
9157,1973,1.4317,12.2224,2.1165,0.0842,0.0394,0.1943,26.08
9167,1991,1.391,11.8824,3.0454,-0.049,0.0861,0.1607,26.1
9177,1939,1.482,11.3629,3.7565,-0.2132,0.2044,0.1039,26.09
9187,1938,1.8483,10.8002,4.2952,-0.4151,0.3483,0.0061,26.11
9197,1965,2.2075,10.5848,4.774,-0.6478,0.4434,-0.0933,26.09
9207,1972,2.5163,10.252,5.6288,-0.8175,0.4932,-0.1047,26.09
9217,2102,2.8132,9.9144,6.5122,-0.7775,0.4434,-0.1071,26.12
9227,2141,3.1053,9.5792,6.79,-0.4831,0.3048,-0.1319,26.12
9237,2209,3.0933,9.1937,6.3805,-0.004,0.097,-0.2025,26.11
9247,2176,2.7246,8.6119,5.1643,0.5692,-0.1668,-0.2787,26.11
9257,2161,2.2865,7.7405,3.3878,1.1189,-0.4335,-0.3347,26.12
9267,1965,1.8076,6.5817,1.1756,1.5167,-0.6531,-0.3781,26.09
9277,1811,1.2378,5.6383,-0.6321,1.6315,-0.8418,-0.3792,26.11
9287,1792,1.0199,4.8914,-1.7621,1.4056,-1.0704,-0.3408,26.1
9297,1834,1.0127,4.7142,-1.8818,0.862,-1.3454,-0.3139,26.08
9307,1813,1.0104,5.2912,-1.154,0.1362,-1.5926,-0.2819,26.1
9317,1839,0.7302,6.6559,0.2179,-0.6166,-1.7315,-0.2491,26.1
9327,1854,0.1173,8.9232,1.5155,-1.2942,-1.6752,-0.1727,26.11
9337,1857,-0.4334,11.6406,2.8252,-1.8037,-1.384,-0.0733,26.1
9347,1889,-0.6847,14.2551,4.4508,-1.9673,-0.9547,-0.025,26.1
9357,1949,-0.7446,15.9262,5.5067,-1.7818,-0.6123,-0.0216,26.09
9367,1709,-0.3639,16.441,6.4572,-1.2582,-0.4405,-0.0304,26.11
9377,1831,-0.2251,15.4115,6.1651,-0.563,-0.5031,-0.037,26.11
9387,4095,-0.2251,14.0444,5.1834,0.1665,-0.5409,-0.0056,26.12
9397,4095,-0.2442,12.4834,3.474,0.8759,-0.4277,-0.0064,26.11
9407,3650,-0.2825,10.6087,1.7597,1.4304,-0.2012,-0.0482,26.13
9417,1373,-0.1317,8.5593,0.0048,1.7533,0.0157,-0.0938,26.11
9427,1937,0.2107,6.6032,-1.3671,1.8215,0.2004,-0.1463,26.12
9437,1991,0.5028,4.8842,-2.2529,1.6401,0.2673,-0.1394,26.12
9447,1931,1.0008,3.474,-2.7581,1.2486,0.218,-0.114,26.11
9457,1909,1.3767,2.6504,-2.8611,0.7751,0.0719,-0.1151,26.12
9467,1875,1.743,2.6911,-2.7438,0.2369,-0.0943,-0.113,26.1
9477,1899,1.8459,3.9528,-2.0518,-0.0957,-0.1748,-0.1391,26.11
9487,1866,1.7765,5.0063,-1.5443,-0.3006,-0.1916,-0.1148,26.11
9497,1904,1.7669,5.7581,-1.0223,-0.469,-0.2334,-0.0405,26.11
9501,1883,1.7717,6.0334,-0.8643,-0.5308,-0.2609,-0.008,26.12
9511,1845,1.6065,6.6822,-0.577,-0.6734,-0.3296,0.069,26.12
9521,1815,1.3551,7.2808,-0.3424,-0.8106,-0.3754,0.1362,26.13
9531,1872,1.0367,7.8937,-0.0455,-0.9062,-0.3885,0.1913,26.11
9541,1888,0.668,8.5545,0.17,-0.9284,-0.3405,0.238,26.1
9551,1825,0.2945,9.1195,0.3184,-0.8865,-0.2462,0.259,26.12
9561,1871,0.0072,9.5624,0.5842,-0.7922,-0.1061,0.259,26.12
9571,1871,-0.1963,9.8665,0.7183,-0.6158,0.0837,0.2324,26.12
9581,1896,-0.182,9.9742,0.7877,-0.3898,0.2966,0.1871,26.13
9591,1920,-0.0287,9.8976,0.6345,-0.1564,0.4972,0.1356,26.13
9601,1905,0.3232,9.7061,0.2969,0.0482,0.6603,0.0925,26.12
9611,1887,0.7638,9.4499,-0.0694,0.2129,0.7858,0.0608,26.11
9621,1922,1.2378,9.2775,-0.3328,0.3248,0.8681,0.0274,26.13
9631,1938,1.6592,9.2105,-0.4573,0.3938,0.8972,-0.0043,26.12
9641,1968,1.9872,9.2608,-0.3591,0.4202,0.8567,-0.025,26.12
9651,1985,2.4181,9.3158,-0.0862,0.3984,0.7381,-0.0408,26.11
9661,1921,2.66,9.7348,0.2801,0.3765,0.5255,-0.0522,26.12
9671,1874,2.4253,10.2831,0.2203,0.4258,0.3443,-0.0485,26.12
9681,1823,2.2027,10.4938,-0.0862,0.4309,0.2537,-0.0632,26.12
9691,1744,1.9513,10.6757,-0.3352,0.3328,0.1657,-0.1013,26.11
9701,1737,1.6305,10.9798,-0.316,0.1585,0.0533,-0.1295,26.12
9711,1700,1.257,11.1522,-0.1772,-0.061,-0.0999,-0.1306,26.12
9721,1626,0.8475,11.3461,0.1532,-0.2542,-0.2705,-0.1074,26.11
9731,1649,0.4405,11.4179,0.3591,-0.3323,-0.3714,-0.073,26.13
9741,1694,0.0862,11.6023,0.6464,-0.2126,-0.3632,-0.0632,26.13
9751,1665,-0.1939,11.5736,0.4525,0.0328,-0.2793,-0.0642,26.14
9761,1702,-0.4477,11.576,0.0072,0.2689,-0.1468,-0.0834,26.12
9771,1708,-0.6512,11.8441,-0.1604,0.4604,0.0011,-0.1442,26.11
9781,1714,-0.7254,12.0907,0.1437,0.5273,0.1047,-0.214,26.12
9791,1717,-0.4669,12.2535,1.1157,0.4554,0.1911,-0.2585,26.1
9801,1712,-0.1437,12.0644,2.32,0.295,0.3048,-0.2411,26.11
9811,1727,0.3184,11.6358,3.5913,0.064,0.4375,-0.1657,26.11
9821,1736,0.5483,11.1546,4.3981,-0.2068,0.5217,-0.0951,26.11
9831,1728,0.838,10.635,5.0135,-0.5492,0.6049,0.029,26.12
9841,1761,1.2426,10.0963,5.8323,-0.8204,0.6203,0.198,26.12
9851,1727,1.7166,9.5289,6.1339,-0.8868,0.5263,0.3856,26.11
9861,1755,2.059,8.9328,5.6838,-0.7163,0.3637,0.5369,26.11
9871,1807,2.0949,8.5377,4.4819,-0.3099,0.2337,0.627,26.12
9881,1889,1.9944,8.157,2.4804,0.2534,0.2422,0.6411,26.12
9891,1971,1.5921,7.6399,0.1915,0.7631,0.4072,0.5369,26.13
9895,1993,1.3575,7.4148,-0.5076,0.9201,0.4924,0.4714,26.13
9905,2063,0.8667,6.8618,-1.4102,1.1554,0.7104,0.2998,26.12
9915,2085,0.7494,6.4356,-1.0942,1.1218,0.8524,0.133,26.12
9925,2047,1.2833,6.6583,-0.2131,0.8148,0.9188,-0.0765,26.13
9935,1872,1.8172,7.8721,1.0726,0.385,0.9457,-0.3373,26.13
9945,1697,2.3272,9.5361,2.5259,-0.069,0.8556,-0.5303,26.13
9955,1653,2.7174,11.327,3.1987,-0.4479,0.6688,-0.5702,26.12
9965,1679,2.9042,12.9909,3.1771,-0.7056,0.5212,-0.4607,26.12
9975,1706,2.9928,14.1737,3.0095,-0.7917,0.4588,-0.2142,26.12
9985,1743,3.1316,14.4538,2.7438,-0.6885,0.4874,0.1226,26.12
9995,1783,3.4788,13.7451,2.6576,-0.5124,0.477,0.4037,26.11
10005,1809,3.4907,12.9742,2.8228,-0.1524,0.3301,0.5849,26.12
10015,1808,3.1723,12.0357,2.66,0.385,0.1039,0.6603,26.13
10025,1871,2.4756,10.6853,1.8818,0.9425,-0.1394,0.6448,26.13
10035,1617,1.5658,8.9926,0.7302,1.3856,-0.3046,0.5486,26.12
10045,2003,0.6752,7.1395,-0.6512,1.6281,-0.3501,0.4008,26.12
10055,4095,-0.1939,5.3965,-1.8555,1.6065,-0.2827,0.2414,26.13
10065,4095,-0.7638,3.8858,-2.7031,1.34,-0.1873,0.0586,26.12
10075,2880,-1.1923,2.976,-3.0885,0.9012,-0.0719,-0.0522,26.13
10085,1301,-1.3719,2.636,-2.8826,0.3778,-0.004,-0.0853,26.13
10095,1951,-1.1995,2.9161,-2.1237,-0.1378,0.0069,-0.0786,26.13
10105,1978,-0.747,3.5386,-1.3001,-0.5769,-0.1015,-0.0618,26.13
10115,1968,-0.4214,4.4053,-0.5267,-0.9393,-0.303,-0.0472,26.13
10125,1994,-0.3567,5.4085,-0.0072,-1.194,-0.5153,-0.0152,26.13
10135,1959,-0.4429,6.5314,0.3041,-1.3283,-0.6363,0.0061,26.12
10145,2032,-0.5411,7.6375,0.4956,-1.3408,-0.6254,0.0104,26.12
10155,2113,-0.5818,8.7364,0.6991,-1.2345,-0.5073,0.0051,26.14
10165,2127,-0.4741,9.7492,0.8356,-1.0227,-0.3291,0.0045,26.15
10175,2190,-0.2466,10.4196,0.8475,-0.7789,-0.1649,0.0216,26.13
10185,2255,0.0982,10.6853,0.7709,-0.5263,-0.0562,0.0544,26.14
10195,2229,0.2442,10.3717,0.395,-0.3307,0.0197,0.0917,26.14
10205,2224,0.3089,9.8234,-0.0958,-0.2393,0.0693,0.0962,26.14
10215,2224,0.1748,9.5217,-0.5483,-0.1982,0.093,0.0927,26.12
10225,2278,0.0742,9.4643,-0.9098,-0.1324,0.1005,0.0903,26.12
10235,2303,0.0982,9.5146,-1.1708,-0.0109,0.0938,0.0815,26.13
10245,2298,0.2514,9.5002,-1.2378,0.093,0.1108,0.0722,26.13
10255,2295,0.4214,9.7348,-0.8835,0.1708,0.1343,0.0842,26.13
10265,2282,0.6321,10.0844,-0.4142,0.2817,0.1727,0.11,26.1
10275,2286,1.0822,10.3549,-0.0239,0.3944,0.1964,0.1055,26.12
10285,2308,1.2785,10.6015,-0.0527,0.4346,0.1514,0.0994,26.12
10289,2310,1.3408,10.647,-0.091,0.4157,0.1303,0.1061,26.12
10299,2295,1.5467,10.75,-0.2729,0.2686,0.053,0.1247,26.12
10309,2243,1.7573,10.8553,-0.5411,-0.0258,-0.0434,0.1223,26.13
10319,2257,1.81,11.0923,-0.6895,-0.3928,-0.1143,0.1013,26.14
10329,2189,1.8172,11.5017,-0.4286,-0.6808,-0.1162,0.0743,26.13
10339,2128,1.81,11.971,0.1341,-0.7581,-0.0642,0.0568,26.12
10349,2031,1.7909,12.3876,0.6225,-0.5953,0.0037,0.0645,26.14
10359,1978,1.8459,12.6198,1.0319,-0.312,0.0277,0.0938,26.12
10369,1933,1.9728,12.651,1.4174,-0.1156,-0.0392,0.1354,26.12
10379,1873,1.9393,12.5097,2.0853,-0.0791,-0.1804,0.1745,26.14
10389,1881,1.9393,12.1817,3.0789,-0.1849,-0.3349,0.1988,26.14
10399,1867,2.0997,11.6885,4.0773,-0.3427,-0.4239,0.1759,26.14
10409,1855,2.1596,11.3102,4.9321,-0.5582,-0.4397,0.1162,26.13
10419,1880,2.308,11.0516,5.6096,-0.797,-0.4442,0.045,26.13
10429,1850,2.3248,10.9056,6.177,-0.9854,-0.4578,-0.0211,26.14
10439,1847,2.2697,10.8338,6.5529,-1.0086,-0.4282,-0.0757,26.14
10449,1858,2.1644,10.1778,6.2848,-0.8918,-0.3363,-0.1087,26.14
10459,1862,1.9465,9.5385,5.9879,-0.5718,-0.2182,-0.1724,26.14
10469,1860,1.8411,9.0333,5.1834,0.0091,-0.1559,-0.2761,26.12
10479,1841,1.6927,8.3222,3.5626,0.6899,-0.1796,-0.3968,26.11
10489,1856,1.5083,7.3813,1.6089,1.2697,-0.2742,-0.4866,26.13
10499,1861,1.4485,6.3015,-0.0958,1.5902,-0.4844,-0.474,26.13
10509,1873,1.6735,5.0973,-1.2522,1.5761,-0.8244,-0.4133,26.14
10519,1831,1.9632,4.2377,-1.324,1.2097,-1.2132,-0.3309,26.13
10529,1823,2.1452,4.5083,-0.4286,0.6318,-1.5292,-0.239,26.13
10539,1840,2.2601,5.4229,0.7326,-0.0541,-1.7744,-0.1364,26.14
10549,1867,2.0662,6.6128,1.3671,-0.866,-1.8932,-0.0453,26.13
10559,1943,1.6328,8.3653,1.9585,-1.7189,-1.8255,0.0128,26.14
10569,1994,1.1109,10.6446,2.7509,-2.3936,-1.6292,0.0653,26.13
10579,2075,0.5315,13.0316,3.7373,-2.7019,-1.3904,0.0839,26.13
10589,2130,-0.1508,14.9135,4.8411,-2.5612,-1.1695,0.0781,26.14
10599,2112,-0.486,15.6006,5.7365,-1.943,-0.9859,0.0578,26.15
10609,1955,-0.9313,14.7483,5.4396,-1.0802,-0.8322,0.0173,26.14
10619,1809,-1.154,13.3453,4.8004,-0.2078,-0.636,0.0056,26.16
10629,1771,-0.9649,11.6885,3.8475,0.643,-0.4215,-0.0506,26.14
10639,1759,-0.6632,9.9311,2.2769,1.3286,-0.21,-0.1407,26.14
10649,1746,-0.1604,7.9918,0.6776,1.7445,-0.0069,-0.2129,26.13
10659,1755,0.6393,5.9927,-0.7781,1.8508,0.1548,-0.3,26.13
10669,1735,1.0918,4.5705,-1.8124,1.6571,0.2534,-0.3632,26.13
10679,1753,1.6688,3.4524,-2.2769,1.1983,0.3006,-0.3373,26.13
10683,1755,1.8866,3.1436,-2.2338,0.9707,0.3008,-0.3198,26.14
10693,1728,2.5929,3.0909,-2.0135,0.3501,0.2433,-0.2643,26.13
10703,1566,2.6671,4.3814,-1.3958,-0.1519,0.1716,-0.1972,26.14
10713,1344,2.5786,5.4229,-0.8595,-0.538,0.1332,-0.0837,26.13
10723,3071,2.478,6.2465,-0.2945,-0.8791,0.0027,0.0416,26.15
10733,4095,2.1931,7.0102,0.1939,-1.1194,-0.2036,0.158,26.12
10743,4095,1.8555,7.7285,0.4812,-1.2305,-0.3968,0.239,26.13
10753,1062,1.3695,8.4755,0.6105,-1.2353,-0.4999,0.2856,26.15
10763,1451,0.8356,9.1794,0.735,-1.1423,-0.4596,0.2987,26.16
10773,1680,0.4214,9.7468,1.0774,-0.9683,-0.2864,0.2896,26.14
10783,1563,0.1676,10.1801,1.4796,-0.7181,-0.0437,0.2438,26.14
10793,1558,0.1269,10.3477,1.6233,-0.425,0.1873,0.1625,26.14
10803,1509,0.3136,10.0126,1.4509,-0.1807,0.3238,0.0661,26.14
10813,1567,0.2466,9.3111,0.8475,-0.0541,0.4024,-0.0016,26.16
10823,1487,0.395,8.6838,0.4525,0.0027,0.477,-0.033,26.15
10833,1485,0.5986,8.4108,0.3112,0.065,0.5673,-0.0722,26.15
10843,1601,0.8452,8.5593,0.3807,0.1615,0.6587,-0.1148,26.14
10853,1467,1.0582,8.916,0.3208,0.2233,0.7053,-0.146,26.13
10863,1637,1.1756,9.1171,0.1939,0.1865,0.6981,-0.134,26.13
10873,1609,1.3288,9.1913,0.0958,0.053,0.6494,-0.1124,26.14
10883,1573,1.4341,9.1866,-0.0335,-0.1895,0.5636,-0.0866,26.15
10893,1628,1.7262,9.1339,-0.3591,-0.5265,0.5039,-0.0783,26.14
10903,1639,2.0207,9.256,-0.5243,-0.8932,0.4932,-0.0818,26.15
10913,1598,2.2984,9.4571,-0.4932,-1.2644,0.4858,-0.0757,26.14
10923,1642,2.5881,9.7899,0.0694,-1.6124,0.4008,-0.0853,26.14
10933,1587,2.7605,10.0556,0.8882,-1.9143,0.215,-0.1186,26.15
10943,1604,2.7174,10.2975,2.1907,-2.0819,-0.0661,-0.1617,26.15
10953,1679,2.2865,10.6422,3.644,-2.0422,-0.3637,-0.1937,26.14
10963,1648,1.3264,11.0636,4.9177,-1.7709,-0.5828,-0.146,26.14
10973,1706,0.3687,11.4994,5.6,-1.3062,-0.6694,-0.0405,26.14
10983,1720,-0.4932,12.0069,5.8155,-0.8271,-0.6046,0.044,26.14
10993,1662,-1.063,12.3828,5.7916,-0.5111,-0.4287,0.061,26.14
11003,1687,-1.3048,12.5001,5.952,-0.3525,-0.1599,-0.0282,26.15
11013,1617,-0.9697,12.1434,6.098,-0.2521,0.11,-0.2036,26.14
11023,1567,-0.1867,11.4491,6.0956,-0.1759,0.3275,-0.4122,26.15
11033,1535,0.6536,10.556,5.9616,-0.2046,0.4559,-0.5236,26.15
11043,1502,1.719,9.572,6.1124,-0.3014,0.5729,-0.4951,26.17
11053,1446,2.5187,8.904,6.3039,-0.3688,0.7767,-0.3778,26.14
11063,1436,2.8515,8.509,6.4931,-0.3477,1.0552,-0.1783,26.14
11073,1529,2.7126,8.3222,6.5434,-0.3006,1.2756,0.0448,26.17
11077,1523,2.5163,8.2456,6.541,-0.267,1.3246,0.1159,26.15
11087,1475,1.834,8.0302,6.1914,-0.0613,1.2652,0.2944,26.14
11097,1483,1.0558,7.8003,5.2122,0.3818,1.1122,0.5217,26.14
11107,1595,0.1963,7.4436,3.7852,0.9782,0.9198,0.781,26.16
11117,1589,-0.4525,6.8809,2.1045,1.5402,0.7163,1.0067,26.16
11127,1535,-0.8499,6.1938,0.6153,1.8367,0.5494,1.0589,26.16
11137,1610,-0.9625,5.4731,-0.1556,1.7208,0.4319,0.9169,26.15
11147,1602,-1.0271,5.0135,-0.1245,1.1495,0.344,0.5828,26.16
11157,1619,-1.1253,5.102,0.8691,0.3118,0.336,0.2467,26.16
11167,1674,-0.5962,5.4708,2.2697,-0.5007,0.5073,0.0013,26.15
11177,1684,0.0263,6.371,3.5003,-1.3312,0.822,-0.1844,26.15
11187,1651,0.8284,7.4699,4.5155,-2.1013,1.2335,-0.1783,26.17
11197,1664,1.9728,8.8705,5.2122,-2.7448,1.5948,-0.0512,26.14
11207,1697,3.1173,10.4244,5.873,-3.0934,1.7762,0.1114,26.15
11217,1780,4.3574,12.0117,6.8857,-3.0867,1.7576,0.3262,26.15
11227,1842,5.284,13.0747,8.169,-2.558,1.4669,0.5668,26.15
11237,1967,5.6599,13.2016,8.5281,-1.5729,0.9438,0.7925,26.15
11247,2064,5.1092,12.5815,8.4132,-0.4096,0.3123,0.8873,26.15
11257,2146,3.8235,11.5903,7.604,0.7813,-0.3389,0.9046,26.16
11267,2176,2.4253,10.1969,6.2824,1.7914,-0.8138,0.9284,26.17
11277,2003,0.8835,8.7939,4.8028,2.496,-1.089,0.9334,26.16
11287,1850,-0.2705,7.2688,3.2609,2.8615,-1.1935,0.8769,26.15
11297,1819,-1.257,6.0932,1.5251,2.8557,-1.1615,0.6877,26.15
11307,1808,-1.9656,5.1882,-0.3615,2.4952,-0.9419,0.413,26.15
11317,1840,-2.8874,4.6567,-1.8723,1.8812,-0.5316,0.2108,26.15
11327,1937,-3.2274,3.972,-2.8563,1.1794,-0.0855,0.0288,26.16
11337,1936,-2.9592,3.7972,-3.0933,0.4698,0.3533,-0.1324,26.17
11347,1905,-2.0806,4.0821,-2.3487,-0.2124,0.6944,-0.2081,26.17
11357,1949,-0.9337,4.6208,-1.1325,-0.8084,0.8551,-0.1852,26.18
11367,1984,0.2131,5.2122,0.1748,-1.2953,0.8295,-0.1063,26.17
11377,1694,1.063,5.8826,1.3791,-1.6406,0.652,-0.0083,26.17
11387,2093,1.6328,6.6918,2.3607,-1.8394,0.4045,0.0973,26.15
11397,4095,1.8675,7.5322,2.9975,-1.8799,0.1974,0.199,26.17
11407,4095,1.9656,8.3103,3.45,-1.7477,0.0608,0.2793,26.16
11417,3776,1.9968,9.0166,3.8379,-1.4725,-0.0035,0.3248,26.15
11427,1649,1.9728,9.6295,4.1492,-1.0981,-0.0309,0.328,26.15
11437,2094,1.9154,10.0197,4.2018,-0.6872,-0.0711,0.2838,26.14
11447,2087,1.7358,10.1969,4.1779,-0.2814,-0.158,0.1937,26.16
11457,2081,1.3336,10.3693,4.0079,0.1005,-0.3152,0.0967,26.16
11467,2102,0.7733,10.4818,3.6392,0.4357,-0.5015,0.0464,26.14
11471,2095,0.5794,10.5249,3.462,0.5553,-0.5612,0.0408,26.14
11481,2123,0.1413,10.5273,2.976,0.7991,-0.6227,0.0517,26.15
11491,2150,-0.2059,10.2951,2.3918,0.9441,-0.5276,0.0749,26.16
11501,2176,-0.3831,10.0006,1.8004,0.9558,-0.3024,0.1114,26.16
11511,2187,-0.2658,9.7875,1.257,0.8532,-0.0328,0.1524,26.17
11521,2207,0.1389,9.5433,0.8212,0.6627,0.2166,0.1671,26.16
11531,2258,0.6177,9.426,0.8499,0.4253,0.3789,0.1479,26.15
11541,2292,1.0175,9.5193,1.4676,0.2435,0.4247,0.117,26.16
11551,2287,1.233,9.5912,2.1955,0.1668,0.3587,0.0735,26.18
11561,2246,1.1756,9.6031,2.873,0.1628,0.2326,0.0216,26.17
11571,2331,0.996,9.584,3.2178,0.2321,0.1548,0.0312,26.16
11581,2387,1.3862,9.6534,2.9425,0.2963,0.1567,0.0581,26.17
11591,2357,1.8004,10.0078,2.5594,0.2446,0.154,0.0426,26.18
11601,2395,2.1141,10.5058,2.308,0.0165,0.0501,0.0362,26.17
11611,2411,2.2242,10.8625,2.6073,-0.3589,-0.1506,0.0786,26.17
11621,2393,2.4014,10.8194,3.8164,-0.7301,-0.3794,0.1292,26.16
11631,2368,2.2889,10.5896,5.4947,-0.9292,-0.5708,0.166,26.16
11641,2343,2.0806,10.4244,6.9408,-0.9132,-0.6528,0.1927,26.17
11651,2320,1.8651,10.343,8.0469,-0.837,-0.5828,0.2033,26.17
11661,2266,1.9513,10.3525,9.0405,-0.81,-0.376,0.1841,26.17
11671,2277,2.2266,10.2568,10.2496,-0.7592,-0.0101,0.1599,26.18
11681,2262,2.648,10.0533,11.1666,-0.5084,0.3555,0.069,26.18
11691,2143,3.0598,9.7229,11.157,-0.0602,0.5971,-0.0901,26.17
11701,2093,3.4405,9.2464,10.0102,0.4922,0.5918,-0.2971,26.14
11711,2023,3.5674,8.6694,8.0445,1.0309,0.3088,-0.481,26.16
11721,2038,3.4596,7.908,5.4803,1.4919,-0.1849,-0.579,26.16
11731,2026,3.213,7.082,2.2793,1.7701,-0.7056,-0.6169,26.16
11741,2011,2.7438,6.4548,-0.972,1.7597,-1.0557,-0.6182,26.16
11751,2020,2.4876,5.7892,-2.5977,1.4504,-1.2148,-0.5918,26.15
11761,2026,2.2984,5.5976,-2.5953,0.9017,-1.3768,-0.5055,26.18
11771,2023,2.3822,5.6623,-1.4629,0.1463,-1.5823,-0.3384,26.15
11781,2014,1.9656,6.0501,0.656,-0.68,-1.7968,-0.1063,26.16
11791,2005,1.2234,6.7756,3.146,-1.323,-1.9287,0.2622,26.16
11801,1973,0.6177,7.695,5.0733,-1.7416,-1.8221,0.5963,26.18
11811,1976,-0.0886,8.8178,6.3327,-1.9606,-1.3984,0.7621,26.18
11821,2033,-0.5842,9.8809,7.1443,-1.9063,-0.7642,0.7128,26.17
11831,2033,-0.7254,10.8625,7.2257,-1.5492,-0.129,0.4274,26.16
11841,2055,-0.668,11.6454,6.7828,-0.9451,0.3336,0.0317,26.14
11851,2123,-0.3208,11.8848,6.0071,-0.1812,0.5335,-0.3142,26.16
11861,2034,0.1915,11.4898,5.0853,0.6342,0.5076,-0.5518,26.17
11865,2038,0.4238,11.1737,4.7046,0.947,0.4506,-0.6163,26.17
11875,2166,1.0798,10.161,3.7326,1.6209,0.2659,-0.6861,26.16
11885,2193,1.8004,8.8753,2.7869,2.0733,0.0853,-0.6955,26.17
11895,2288,2.4229,7.5298,1.6927,2.2745,0.0059,-0.7021,26.18
11905,2337,2.6624,6.6607,0.8332,2.2503,0.0416,-0.663,26.19
11915,2199,2.8898,5.8658,0.0766,2.0486,0.1617,-0.5228,26.19
11925,2191,3.1077,5.0542,-0.2203,1.7618,0.3075,-0.3206,26.19
11935,1938,3.2274,4.4748,-0.2298,1.3973,0.3536,-0.105,26.18
11945,1883,3.1819,4.0654,0.0192,0.9473,0.231,0.1098,26.17
11955,1828,3.0861,3.9648,0.1437,0.4074,-0.0658,0.2686,26.16
11965,1819,2.6264,4.1946,0.249,-0.2182,-0.4644,0.3392,26.17
11975,1819,1.968,4.6136,0.2729,-0.8274,-0.8378,0.3507,26.17
11985,1847,1.0798,5.2744,0.3376,-1.3411,-1.0539,0.3232,26.17
11995,1814,0.2059,6.1818,0.5195,-1.6928,-1.0456,0.2891,26.19
12005,1840,-0.431,7.3215,0.6967,-1.8074,-0.8082,0.2273,26.17
12015,1819,-0.7302,8.4779,0.9457,-1.6896,-0.3752,0.1428,26.18
12025,1631,-0.6081,9.3925,1.4341,-1.3869,0.1348,0.052,26.17
12035,1517,-0.1508,10.0676,2.047,-0.9345,0.5857,-0.028,26.17
12045,3793,0.5004,10.4339,2.648,-0.3805,0.8543,-0.0722,26.19
12055,4095,1.1756,10.5082,2.9185,0.1913,0.9062,-0.0789,26.18
12065,4095,1.7382,10.3238,2.8611,0.696,0.7874,-0.0544,26.18
12075,1281,2.162,9.9647,2.4972,1.0744,0.5772,-0.0245,26.19
12085,1707,2.3535,9.596,1.9896,1.3062,0.3677,-0.012,26.18
12095,1863,2.4852,9.2153,1.4174,1.3941,0.2292,-0.0309,26.18
12105,1804,2.5738,8.8873,0.9002,1.3446,0.1876,-0.0863,26.18
12115,1744,2.8204,8.6622,0.4693,1.1626,0.2217,-0.1697,26.18
12125,1802,3.1556,8.5258,0.2658,0.8468,0.2571,-0.2577,26.19
12135,1807,3.395,8.5569,0.5339,0.4644,0.1985,-0.3243,26.18
12145,1831,3.5291,8.7388,0.9792,0.1029,0.0234,-0.364,26.17
12155,1809,3.3734,9.1028,1.5036,-0.1839,-0.2883,-0.3773,26.19
12165,1835,2.8994,9.5026,1.6065,-0.4218,-0.676,-0.3464,26.18
12175,1872,2.4373,10.0078,1.7095,-0.6017,-1.0243,-0.3014,26.17
12185,1875,1.822,10.4746,1.9034,-0.6734,-1.2276,-0.2393,26.18
12195,1924,1.063,10.9415,2.0638,-0.6352,-1.2665,-0.1506,26.19
12205,1936,0.1317,11.4994,1.9106,-0.5423,-1.1687,-0.032,26.17
12215,1946,-1.0151,12.2751,1.5969,-0.4762,-0.963,0.1055,26.18
12225,1943,-1.9225,12.9861,1.7765,-0.4836,-0.6744,0.218,26.19
12235,1989,-2.2266,13.1657,2.873,-0.5239,-0.3206,0.2494,26.19
12245,2001,-1.8244,12.6941,4.628,-0.5177,0.0632,0.1292,26.17
12255,2001,-1.0774,11.8968,6.3805,-0.401,0.4109,-0.0682,26.19
12259,2000,-0.7398,11.5281,6.9983,-0.34,0.5372,-0.146,26.19
12269,2021,0.103,10.659,8.1068,-0.2105,0.7461,-0.3107,26.17
12279,2069,1.0127,9.8952,8.7293,-0.1268,0.825,-0.3936,26.18
12289,2087,1.7334,9.3326,8.9735,-0.0461,0.7749,-0.4306,26.19
12299,2074,2.1452,9.0956,8.4683,0.0839,0.6869,-0.3688,26.17
12309,2091,2.3296,8.8921,7.2999,0.3059,0.6731,-0.2006,26.18
12319,2090,2.0949,8.6215,5.5976,0.6371,0.6534,-0.064,26.19
12329,1999,1.5993,8.7436,3.3255,0.995,0.6712,0.1391,26.2
12339,1927,1.1181,8.916,1.142,1.279,0.7434,0.4549,26.19
12349,1866,1.1875,8.5712,-0.0335,1.3792,0.8154,0.729,26.17
12359,1840,1.4246,7.9823,-0.1748,1.2835,0.7863,0.7557,26.18
12369,1756,1.4916,7.7309,0.5219,0.975,0.6518,0.5849,26.19
12379,1741,1.4676,7.75,1.5754,0.4509,0.522,0.2867,26.17
12389,1714,1.4724,8.1451,3.0813,-0.2156,0.4703,-0.036,26.19
12399,1728,1.324,8.9687,4.7788,-0.8154,0.5079,-0.2633,26.19
12409,1712,1.2594,10.1107,5.9017,-1.2177,0.5841,-0.3091,26.21
12419,1711,1.3647,11.3054,6.1746,-1.3406,0.6233,-0.158,26.19
12429,1751,1.8364,12.2535,5.4971,-1.1772,0.5961,0.1082,26.17
12439,1755,2.4469,12.6103,4.3814,-0.7879,0.5577,0.3419,26.17
12449,1786,2.7461,12.3014,3.9193,-0.1466,0.5351,0.5209,26.19
12459,1802,2.9928,11.3413,3.6512,0.7181,0.4863,0.6281,26.2
12469,1807,2.8754,9.9742,3.2968,1.5788,0.3936,0.6395,26.19
12479,1840,2.4876,8.2217,2.7629,2.2591,0.222,0.542,26.19
12489,1789,2.0782,6.5074,1.8268,2.6436,0.0594,0.389,26.19
12499,1808,1.415,4.944,0.6393,2.6993,-0.0514,0.2033,26.19
12509,1840,0.6081,3.632,-0.5028,2.4187,-0.0991,0.0512,26.2
12519,1843,-0.0551,2.6983,-1.3312,1.869,-0.1633,-0.0757,26.21
12529,1936,-0.6033,2.217,-1.7549,1.0885,-0.2747,-0.1468,26.18
12539,2010,-1.0008,2.2936,-1.7382,0.1809,-0.4207,-0.1543,26.19
12549,2098,-1.1349,2.9209,-1.3336,-0.6813,-0.5516,-0.118,26.19
12559,2146,-1.0367,3.8499,-0.7757,-1.3917,-0.619,-0.0709,26.17
12569,2080,-0.8906,4.9847,-0.0862,-1.8924,-0.5955,-0.0152,26.18
12579,2019,-0.6488,6.3135,0.5267,-2.1416,-0.4772,0.0317,26.19
12589,1883,-0.3567,7.6902,1.1396,-2.1096,-0.2713,0.0789,26.19
12599,1795,0.0814,8.9447,1.7909,-1.8636,-0.0336,0.1058,26.19
12609,1791,0.5219,10.0293,2.241,-1.4781,0.1708,0.1053,26.19
12619,1840,0.9505,10.8553,2.6169,-0.9958,0.2803,0.0965,26.19
12629,1849,1.3264,11.315,2.885,-0.4533,0.2579,0.0863,26.18
12639,1878,1.3934,11.1761,2.5905,0.0552,0.1098,0.0743,26.19
12649,1847,1.245,10.6638,2.1835,0.4106,-0.0546,0.0714,26.18
12653,1849,1.1732,10.4675,2.083,0.5252,-0.1175,0.0592,26.18
12663,1899,0.8811,10.0724,1.8004,0.7602,-0.2699,0.0088,26.18
12673,1846,0.5674,9.6965,1.3192,0.9062,-0.3936,-0.056,26.17
12683,1473,0.1844,9.3948,0.6991,0.9646,-0.4607,-0.0965,26.19
12693,2486,-0.1173,9.019,0.0383,0.9209,-0.4381,-0.0951,26.19
12703,4095,-0.2586,8.7149,-0.4429,0.7834,-0.3429,-0.0642,26.19
12713,4095,-0.3184,8.8514,-0.4956,0.5593,-0.211,-0.0005,26.2
12723,2183,-0.2729,9.5361,-0.1556,0.4223,-0.1063,0.0616,26.19
12733,1519,-0.3591,9.9862,-0.1604,0.2891,-0.0016,0.1212,26.19
12743,1861,-0.419,10.1969,-0.158,0.0959,0.1524,0.1596,26.19
12753,1840,-0.2658,10.3501,0.0838,-0.122,0.3216,0.1324,26.19
12763,1805,0.0359,10.6135,0.5459,-0.3075,0.4844,0.0469,26.18
12773,1808,0.431,10.9822,0.9098,-0.4074,0.5886,-0.0357,26.18
12783,1823,1.0463,11.3749,1.1109,-0.4197,0.6142,-0.0855,26.2
12793,1879,1.7406,11.801,1.1636,-0.3587,0.5737,-0.1143,26.19
12803,1900,2.332,12.2751,1.1971,-0.2739,0.4631,-0.1148,26.2
12813,1921,2.7916,12.7108,1.6496,-0.1948,0.2971,-0.085,26.19
12823,1918,3.0071,13.0795,2.6504,-0.134,0.0773,-0.0173,26.2
12833,1938,3.0335,13.1274,3.9792,-0.0986,-0.137,0.0895,26.17
12843,1968,2.7845,12.7132,5.3654,-0.0767,-0.292,0.1996,26.18
12853,1975,2.3511,11.9231,6.5601,-0.0831,-0.3576,0.2313,26.19
12863,2019,1.8603,11.169,7.1491,-0.1657,-0.2904,0.2236,26.19
12873,2026,1.7262,10.4459,7.4962,-0.3219,-0.0911,0.1721,26.2
12883,2044,1.8076,9.8306,7.4891,-0.4442,0.1556,0.0413,26.19
12893,2064,2.0806,9.4451,7.1946,-0.4381,0.3355,-0.141,26.19
12903,2105,2.2458,9.1219,6.5649,-0.2401,0.3616,-0.3333,26.2
12913,2124,2.3056,8.8538,5.5019,0.1335,0.2449,-0.498,26.19
12923,2135,2.4014,8.4252,4.0175,0.5673,0.0538,-0.607,26.21
12933,2182,2.5043,7.8147,2.4708,0.9619,-0.1769,-0.6528,26.19
12943,2193,2.6336,7.0294,1.1492,1.2324,-0.4362,-0.6368,26.2
12953,2210,2.6576,6.268,-0.0263,1.2649,-0.6984,-0.5638,26.2
12963,2207,2.5786,5.7413,-0.6081,0.9683,-0.9198,-0.4191,26.2
12973,2155,2.4062,5.6551,-0.5243,0.4112,-1.044,-0.2153,26.19
12983,2059,2.1787,6.1842,0.2562,-0.2334,-1.105,-0.0195,26.18
12993,1989,1.7095,7.1012,0.9601,-0.9038,-1.1146,0.1655,26.19
13003,1924,1.1133,8.2911,1.6113,-1.534,-1.0525,0.3269,26.18
13013,1872,0.6273,9.6295,2.4708,-1.9652,-0.9329,0.4207,26.19
13023,1846,0.3352,10.9008,3.6631,-2.0699,-0.8154,0.4141,26.2
13033,1841,0.0311,11.7148,4.64,-1.8399,-0.729,0.3254,26.19
13043,1818,-0.2011,11.9088,5.3391,-1.3366,-0.6715,0.1825,26.19
13047,1825,-0.2658,11.7938,5.3941,-1.088,-0.6486,0.1175,26.19
13057,1843,-0.407,11.1498,5.0039,-0.4431,-0.5457,-0.0226,26.19
13067,1837,-0.2442,10.2783,4.1851,0.2012,-0.3451,-0.1468,26.2
13077,1850,0.0742,9.3422,3.1556,0.7232,-0.1164,-0.2729,26.19
13087,1871,0.4693,8.2911,1.7573,1.1674,0.1394,-0.3925,26.19
13097,1847,0.984,7.1778,0.2107,1.436,0.3752,-0.4546,26.18
13107,1837,1.5275,6.0789,-0.984,1.4957,0.6211,-0.4692,26.19
13117,1847,2.0949,5.2912,-1.5251,1.3539,0.797,-0.4037,26.18
13127,1847,2.6432,4.6735,-1.5012,1.0563,0.8415,-0.2851,26.18
13137,1840,3.2441,4.4508,-1.2282,0.6422,0.708,-0.1338,26.19
13147,1818,3.6392,4.6783,-0.7973,0.125,0.4207,0.0064,26.17
13157,1811,3.4213,5.4277,-0.1915,-0.3613,0.0485,0.1426,26.18
13167,1810,2.9425,6.1507,0.2442,-0.7661,-0.2785,0.2686,26.19
13177,1858,2.3248,6.9887,0.68,-1.0515,-0.4895,0.3387,26.18
13187,1905,1.6161,8.0254,0.9673,-1.1906,-0.5449,0.36,26.19
13197,1982,1.0032,9.1147,1.2282,-1.1788,-0.4378,0.3475,26.2
13207,2047,0.5746,10.1299,1.4126,-1.0333,-0.2156,0.3051,26.2
13217,2059,0.3903,10.9008,1.4676,-0.773,0.0421,0.2348,26.21
13227,1989,0.4836,11.1905,1.5227,-0.4407,0.2646,0.1463,26.19
13237,1819,0.5722,11.0061,1.4078,-0.0869,0.405,0.0679,26.19
13247,1697,0.723,10.4363,1.2402,0.2342,0.4927,0.0069,26.2
13257,1663,0.8212,9.924,1.1516,0.5441,0.5593,-0.064,26.21
13267,1695,1.008,9.481,1.008,0.8202,0.6238,-0.1295,26.19
13277,1685,1.1779,9.0477,0.8428,1.0104,0.6683,-0.1609,26.19
13287,1712,1.3982,8.6694,0.7111,1.0938,0.6749,-0.1647,26.19
13297,1729,1.6257,8.3055,0.5674,1.0632,0.6414,-0.1444,26.2
13307,1749,1.7837,8.1116,0.3615,0.9196,0.586,-0.1135,26.19
13317,1775,1.9297,8.1738,0.1437,0.712,0.5327,-0.0767,26.19
13327,1667,2.1069,8.5473,0.0958,0.5063,0.4754,-0.0498,26.19
13337,1360,2.2314,9.0692,0.0551,0.364,0.4391,-0.0298,26.2
13347,2631,2.5546,9.3661,0.0503,0.2297,0.3981,-0.0317,26.2
13357,4095,2.7701,9.663,0.2705,0.0485,0.2787,-0.0661,26.2
13367,4095,2.9592,10.1251,0.9385,-0.1569,0.0506,-0.1148,26.2
13377,1569,2.8036,10.5273,1.3503,-0.3864,-0.2667,-0.1532,26.22
13387,1436,2.4732,10.9319,1.6209,-0.582,-0.5369,-0.1743,26.2
13397,1824,1.8411,11.3413,1.7813,-0.6126,-0.6598,-0.1905,26.19
13407,1750,1.2234,11.789,1.8052,-0.4218,-0.6267,-0.2046,26.2
13417,1742,0.7709,12.1793,1.5227,-0.0711,-0.5028,-0.2073,26.2
13427,1745,0.6536,12.4906,1.0319,0.2928,-0.3675,-0.2041,26.19
13437,1745,0.8116,12.7324,0.6991,0.5489,-0.2702,-0.1953,26.21
13441,1748,0.9266,12.7707,0.6488,0.6057,-0.2473,-0.1913,26.21
13451,1787,1.3096,12.4211,0.8523,0.5764,-0.2254,-0.178,26.2
13461,1794,1.9728,11.8872,1.7526,0.373,-0.2454,-0.1974,26.2
13471,1790,2.7485,11.4227,3.0789,0.0845,-0.3032,-0.2459,26.2
13481,1782,3.2513,10.9702,4.4173,-0.2284,-0.392,-0.2761,26.2
13491,1795,3.3567,10.5105,5.4708,-0.5385,-0.5473,-0.2302,26.21
13501,1821,3.2394,9.912,6.1148,-0.8508,-0.7695,-0.137,26.2
13511,1840,2.557,9.2727,6.505,-1.0834,-1.0043,-0.0157,26.2
13521,1859,1.5682,8.4874,6.517,-1.1287,-1.1634,0.1564,26.21
13531,1871,0.5171,7.8338,6.1818,-0.9193,-1.1663,0.3469,26.21
13541,1930,-0.4334,7.4101,5.5737,-0.4386,-1.0011,0.5321,26.22
13551,1933,-1.0511,7.0988,4.3766,0.1964,-0.6694,0.6582,26.22
13561,1949,-1.4341,6.8474,2.7701,0.765,-0.1868,0.6635,26.21
13571,1997,-1.4174,6.6008,1.2594,1.1154,0.3714,0.5633,26.21
13581,2000,-1.0032,6.4141,0.316,1.1714,0.8713,0.376,26.22
13591,1986,-0.103,6.4643,-0.0479,0.9217,1.2052,0.1151,26.2
13601,1990,0.9194,6.9863,0.1149,0.4018,1.2929,-0.1903,26.21
13611,2011,2.2625,8.1235,0.3687,-0.308,1.1399,-0.4567,26.23
13621,1968,3.4572,9.9551,1.1803,-1.1056,0.8295,-0.671,26.2
13631,1943,4.118,12.299,2.715,-1.6633,0.4173,-0.7005,26.2
13641,1903,4.4676,14.3006,4.0941,-1.7941,0.0472,-0.4421,26.22
13651,1808,4.9943,15.4474,5.2433,-1.5583,-0.19,-0.0549,26.22
13661,1745,5.2816,15.117,5.4612,-1.0864,-0.2345,0.2433,26.22
13671,1712,5.3271,13.2782,5.0685,-0.659,-0.1266,0.3293,26.22
13681,1710,4.9321,11.6143,5.6479,-0.1434,-0.146,0.3136,26.2
13691,1683,4.0175,10.3166,5.7868,0.5852,-0.4743,0.2968,26.21
13701,1691,2.7797,9.1698,4.865,1.2729,-0.9534,0.2984,26.21
13711,1679,1.5586,7.8578,3.3591,1.7677,-1.3843,0.3072,26.22
13721,1719,0.4812,6.4955,1.6879,2.0126,-1.647,0.2158,26.21
13731,1694,-0.5243,5.2577,-0.4717,1.9508,-1.6395,-0.0368,26.2
13741,1723,-1.8459,4.6232,-2.399,1.5804,-1.3286,-0.3131,26.21
13751,1712,-2.7007,4.1324,-3.1436,1.0472,-0.8788,-0.4421,26.22
13761,1753,-2.7078,3.8451,-2.8204,0.5124,-0.4844,-0.4383,26.21
13771,1795,-1.9609,4.1731,-1.9656,0.004,-0.2595,-0.4178,26.2
13781,1840,-0.9912,4.9321,-0.6321,-0.4191,-0.2025,-0.393,26.2
13791,1829,-0.067,5.6479,0.4405,-0.7139,-0.2694,-0.3714,26.21
13801,1853,0.5866,6.3518,1.3024,-0.8948,-0.3584,-0.3307,26.23
13811,1930,1.0367,6.9528,1.9728,-0.9691,-0.4402,-0.2734,26.22
13821,1963,1.3503,7.4795,2.2769,-0.9446,-0.5124,-0.2188,26.22
13831,2035,1.5203,7.9727,2.3176,-0.8697,-0.571,-0.1801,26.21
13835,2094,1.5323,8.1547,2.2242,-0.8388,-0.5902,-0.1636,26.2
13845,2151,1.506,8.5377,1.9632,-0.7634,-0.6195,-0.1156,26.22
13855,2246,1.4485,8.77,1.6017,-0.6686,-0.6267,-0.0714,26.21
13865,2211,1.2953,8.9663,1.1779,-0.5265,-0.6307,-0.0386,26.22
13875,2224,1.0511,9.1746,0.6632,-0.3288,-0.6534,-0.0216,26.2
13885,2078,0.7254,9.2967,0.1676,-0.1058,-0.6923,-0.0163,26.22
13895,1941,0.3328,9.3996,-0.1939,0.1095,-0.7333,-0.0229,26.22
13905,1890,-0.0503,9.5313,-0.4022,0.304,-0.7554,-0.0477,26.21
13915,1894,-0.395,9.6989,-0.577,0.4626,-0.7352,-0.0802,26.19
13925,1911,-0.68,9.7636,-0.8164,0.567,-0.6518,-0.0973,26.21
13935,1918,-0.7135,9.6869,-1.0487,0.6121,-0.4986,-0.0997,26.22
13945,1909,-0.5291,9.5385,-1.3815,0.567,-0.3014,-0.0858,26.2
13955,1931,-0.1652,9.5984,-1.4916,0.4173,-0.1159,-0.0453,26.22
13965,1934,0.2562,10.2185,-1.0056,0.3312,0.0237,0.0075,26.22
13975,1947,0.7685,10.6255,-0.577,0.267,0.1298,0.0421,26.23
13985,1711,1.3791,10.7188,-0.2658,0.1354,0.1545,0.0533,26.22
13995,1968,1.9465,10.6566,0.1197,-0.081,0.1087,0.0352,26.22
14005,4095,2.2338,10.671,0.6656,-0.3075,0.0125,0.0032,26.22
14015,4095,2.4086,10.7931,1.2115,-0.4519,-0.0648,-0.0128,26.21
14025,3371,2.4924,10.9654,1.3838,-0.5143,-0.0789,-0.0117,26.24
14035,1379,2.5714,11.2192,1.5514,-0.4996,-0.0485,0.0205,26.24
14045,1922,2.6959,11.4227,1.549,-0.4639,-0.0203,0.0749,26.23
14055,1961,2.8419,11.6837,1.731,-0.4791,-0.0282,0.1306,26.2
14065,1939,2.7414,11.9997,2.4014,-0.5561,-0.1442,0.2161,26.21
14075,1919,2.4852,12.2631,3.3782,-0.6555,-0.3832,0.3267,26.21
14085,1919,2.2386,12.5289,4.3527,-0.7557,-0.6352,0.4162,26.22
14095,1938,1.8794,12.706,5.2601,-0.8005,-0.7751,0.4612,26.21
14105,1935,1.4198,12.8401,6.0334,-0.7714,-0.7306,0.4215,26.2
14115,1958,1.1995,12.7108,6.3997,-0.6598,-0.4895,0.2971,26.21
14125,1974,1.1803,12.3158,6.4643,-0.4415,-0.1348,0.1188,26.22
14135,2038,1.4222,11.5784,6.3183,-0.1412,0.1508,-0.0738,26.22
14145,2032,1.8699,10.7619,5.9209,0.2529,0.2526,-0.247,26.22
14155,2079,2.3703,9.7875,5.2289,0.6909,0.1865,-0.377,26.22
14165,2121,2.8204,8.4707,4.2784,1.092,-0.0139,-0.4714,26.2
14175,2166,3.134,6.924,3.1005,1.3638,-0.3166,-0.5508,26.22
14185,2179,3.3758,5.4492,1.9537,1.4258,-0.6448,-0.6014,26.22
14195,2165,3.6296,3.8283,0.8045,1.2465,-0.9595,-0.5883,26.23
14205,2235,3.9792,3.383,0.7159,0.789,-1.2236,-0.5465,26.2
14215,2261,4.1659,3.3878,0.8236,0.2537,-1.4786,-0.4762,26.22
14225,2271,3.9959,3.8762,1.221,-0.3928,-1.6638,-0.3872,26.22
14229,2261,3.7972,4.2186,1.4413,-0.6547,-1.7221,-0.3379,26.22
14239,2285,3.1508,5.3151,1.992,-1.2375,-1.8407,-0.1703,26.22
14249,2217,2.2721,6.7708,2.3727,-1.6513,-1.886,0.0341,26.22
14259,2224,1.324,8.6167,2.5594,-1.8572,-1.8269,0.2385,26.21
14269,2256,0.5171,10.4004,2.9161,-1.8362,-1.6875,0.396,26.22
14279,2226,0.0263,11.8034,3.4979,-1.6132,-1.5332,0.4394,26.22
14289,2151,-0.0694,12.5193,4.2425,-1.2015,-1.372,0.3291,26.23
14299,2059,0.0263,12.3828,4.5945,-0.6944,-1.2337,0.0895,26.22
14309,1971,0.158,11.5329,4.2617,-0.2777,-1.1114,-0.1623,26.22
14319,1935,0.5076,10.6207,3.8618,0.0533,-0.9481,-0.4122,26.2
14329,1903,1.087,9.8354,3.292,0.3456,-0.7522,-0.6456,26.2
14339,1885,1.6592,9.0644,2.4373,0.5716,-0.5748,-0.8114,26.21
14349,1881,2.2434,8.3797,1.5275,0.6899,-0.4674,-0.8889,26.21
14359,1855,2.7126,7.6998,0.8715,0.7088,-0.4591,-0.8617,26.22
14369,1855,3.0885,7.1036,0.4573,0.6547,-0.5369,-0.748,26.22
14379,1889,3.2561,6.5697,0.0646,0.5252,-0.6707,-0.5524,26.22
14389,1904,3.304,6.2082,-0.2346,0.3035,-0.8223,-0.3411,26.24
14399,1927,3.0215,6.0765,-0.316,0.0306,-0.9697,-0.1559,26.24
14409,1927,2.4541,6.2297,-0.1652,-0.2356,-1.0837,-0.0027,26.23
14419,1908,1.7382,6.6774,0.1101,-0.417,-1.1111,0.1082,26.23
14429,1936,1.1468,7.1635,0.3974,-0.5255,-1.0392,0.1687,26.23
14439,1919,0.723,7.6638,0.6081,-0.5822,-0.9126,0.1743,26.22
14449,1907,0.4573,8.2145,0.747,-0.5745,-0.7605,0.1439,26.2
14459,1873,0.2586,8.5808,0.7207,-0.5151,-0.6177,0.0842,26.21
14469,1947,0.2514,8.8633,0.7326,-0.4186,-0.4826,0.0096,26.22
14479,1997,0.3903,8.9974,0.7422,-0.296,-0.3451,-0.0698,26.22
14489,2019,0.6057,8.9519,0.7542,-0.1745,-0.2025,-0.1415,26.22
14499,2128,0.8188,8.8346,0.7709,-0.064,-0.0496,-0.1937,26.24
14509,2098,1.0942,8.6263,0.8116,0.048,0.1103,-0.2262,26.22
14519,2046,1.4269,8.4204,0.9026,0.1655,0.2441,-0.2414,26.23
14529,1872,1.7095,8.3151,0.9888,0.2825,0.3227,-0.247,26.22
14539,1721,1.8675,8.3773,0.9601,0.3896,0.3389,-0.2286,26.21
14549,1683,2.0063,8.4755,0.7422,0.4727,0.3363,-0.1913,26.22
14559,1701,2.1093,8.6526,0.5435,0.5273,0.3507,-0.1527,26.22
14569,1712,2.2553,8.8131,0.3519,0.5574,0.4088,-0.1268,26.22
14579,1687,2.4612,8.9878,0.2251,0.5636,0.4956,-0.1204,26.22
14589,1690,2.794,9.1961,0.0982,0.5241,0.5673,-0.1348,26.21
14599,1722,2.9377,9.3685,0.2562,0.4493,0.5537,-0.1649,26.22
14609,1730,3.0382,9.6079,0.4884,0.3496,0.4362,-0.1927,26.23
14619,1647,3.0335,9.8019,0.7877,0.2041,0.203,-0.1982,26.22
14623,1505,3.0933,9.8809,0.8691,0.1327,0.0847,-0.1974,26.22
14633,1383,3.067,10.1801,1.0534,-0.0813,-0.2369,-0.21,26.23
14643,3367,2.7102,10.5489,1.2067,-0.3152,-0.5423,-0.2129,26.24
14653,4095,2.1548,10.9846,1.2498,-0.4916,-0.7232,-0.2092,26.22
14663,4011,1.3743,11.7148,2.4014,-0.485,-0.6552,-0.2126,26.22
14673,1057,0.0383,12.9957,1.5514,0.4495,-0.0123,-0.3685,26.24
14683,1595,0.3591,12.2823,0.4645,0.3051,0.2302,-0.2721,26.24
14693,1745,0.5028,12.6246,0.9505,0.5734,0.1871,-0.2827,26.23
14703,1677,0.7278,12.9143,1.0367,0.8002,0.1527,-0.2545,26.24
14713,1659,1.166,12.9838,1.1396,0.8911,0.1588,-0.2358,26.22
14723,1719,1.6951,12.7707,1.5682,0.781,0.0919,-0.259,26.23
14733,1726,2.1476,12.323,2.1668,0.5209,-0.0101,-0.2531,26.22
14743,1724,2.5187,11.995,2.8108,0.2726,-0.0834,-0.2366,26.23
14753,1750,2.9808,11.6286,3.6655,0.057,-0.1407,-0.1985,26.24
14763,1787,3.1508,11.3772,4.1803,-0.1553,-0.1761,-0.1769,26.22
14773,1808,2.9473,10.8936,4.1228,-0.3603,-0.1447,-0.1415,26.23
14783,1834,2.5881,10.2879,4.3814,-0.4719,-0.0397,-0.1348,26.21
14793,1847,1.9465,9.7683,5.0422,-0.36,0.0067,-0.121,26.24
14803,1906,1.2785,9.2608,4.9943,-0.0349,-0.0418,-0.0682,26.23
14813,1911,0.8787,8.6862,4.3215,0.4903,-0.2041,0.0269,26.24
14823,1954,0.103,8.0349,3.2609,1.1008,-0.4261,0.1543,26.24
14833,1979,-0.5602,6.9049,1.5155,1.5047,-0.5817,0.3376,26.24
14843,2017,-0.7661,5.6383,-0.1508,1.5495,-0.6027,0.4509,26.24
14853,2029,-0.9481,4.6878,-1.221,1.3166,-0.5529,0.486,26.24
14863,1977,-0.9313,4.3144,-1.1851,0.8335,-0.3946,0.4434,26.25
14873,1987,-0.7518,4.9704,-0.0503,0.2086,-0.1412,0.3024,26.23
14883,2000,-0.249,6.28,1.2354,-0.3861,0.1585,0.1796,26.22
14893,2032,1.0439,7.8099,1.5778,-0.8969,0.4263,0.0008,26.24
14903,2023,2.3703,8.6886,1.2881,-1.5553,0.607,-0.2217,26.25
14913,2005,4.4293,9.9671,2.6408,-2.0379,0.6438,-0.551,26.25
14923,1987,5.351,12.7659,4.695,-2.0755,0.5047,-0.8074,26.25
14933,1905,5.2098,15.4115,5.8083,-1.6289,0.2694,-0.6315,26.23
14943,1827,5.0446,14.8536,4.4149,-1.0608,0.0282,-0.3112,26.23
14953,1778,4.5418,12.3349,3.0382,-0.9129,-0.0139,-0.0906,26.24
14963,1714,4.0342,10.3908,2.976,-0.8644,0.0448,-0.0496,26.25
14973,1714,3.2561,9.1506,3.1508,-0.7141,0.0962,-0.0362,26.22
14983,1759,2.4253,8.3582,3.2346,-0.4751,0.0618,-0.0317,26.23
14993,1731,1.4365,7.8793,3.1436,-0.2534,-0.1676,-0.0093,26.23
15003,1723,0.6105,7.264,2.1883,-0.1314,-0.5388,-0.0237,26.23
15013,1715,0.1006,7.1347,1.8603,-0.1034,-0.9427,-0.1026,26.22
15017,1716,-0.103,7.0509,1.6544,-0.1116,-1.1194,-0.1426,26.22
15027,1748,-0.3472,6.9049,1.4389,-0.1303,-1.5505,-0.2252,26.22
15037,1734,-0.3759,6.9001,1.494,-0.1439,-1.8143,-0.3088,26.23
15047,1749,-0.1389,7.0102,1.3384,-0.113,-1.9923,-0.3584,26.23
15057,1839,0.0622,7.3334,1.142,-0.1154,-1.9977,-0.3885,26.24
15067,1834,0.3735,7.8602,1.1803,-0.0285,-1.8826,-0.3821,26.24
15077,1851,0.7494,7.9703,1.0415,0.0325,-1.7142,-0.3725,26.22
15087,1873,1.0534,7.9895,1.1229,0.0256,-1.5972,-0.3269,26.23
15097,1898,1.233,7.8817,1.233,-0.0061,-1.5713,-0.2755,26.24
15107,1903,1.1013,7.683,1.0774,-0.0514,-1.6276,-0.2443,26.24
15117,1936,0.9577,7.3885,1.0942,-0.1106,-1.6497,-0.2665,26.23
15127,1978,0.9601,7.2999,1.4413,-0.1529,-1.6819,-0.3032,26.24
15137,2081,1.0032,7.3574,1.901,-0.1588,-1.7541,-0.3339,26.23
15147,2150,0.9194,7.3885,1.9704,-0.1466,-1.8703,-0.364,26.24
15157,2145,0.668,7.367,1.8196,-0.1351,-1.9505,-0.4255,26.24
15167,2112,0.3783,7.616,1.8316,-0.0791,-1.9244,-0.4796,26.26
15177,1950,0.249,7.9296,1.7095,0.0285,-1.8175,-0.5049,26.27
15187,1810,0.1101,8.181,1.3312,0.1673,-1.7126,-0.4962,26.25
15197,1726,0.0431,8.3103,0.7159,0.2398,-1.6292,-0.4762,26.24
15207,1707,-0.146,8.5784,0.2442,0.2499,-1.5894,-0.4607,26.24
15217,1744,-0.4621,8.8298,-0.1532,0.2174,-1.5599,-0.4421,26.25
15227,1737,-0.6393,9.1028,-0.249,0.1356,-1.57,-0.4056,26.24
15237,1705,-0.8475,9.4332,-0.3472,0.0274,-1.6113,-0.3664,26.24
15247,1760,-0.747,9.7731,-0.6632,-0.0522,-1.5905,-0.3099,26.24
15257,1775,-0.8475,10.1155,-0.9912,-0.1306,-1.4544,-0.2417,26.25
15267,1719,-0.8547,10.6446,-1.0032,-0.1996,-1.226,-0.1692,26.24
15277,1365,-0.7614,11.224,-0.8643,-0.1951,-0.9537,-0.101,26.24
15287,2047,-0.3615,11.6382,-0.5219,-0.1503,-0.7115,-0.0855,26.26
15297,4095,0.1748,11.8274,-0.1173,-0.1069,-0.5316,-0.0786,26.26
15307,4095,0.5746,11.8585,0.3017,-0.0839,-0.3949,-0.0576,26.24
15317,2511,0.9433,11.5831,0.5938,-0.0421,-0.2204,-0.0181,26.25
15327,1347,0.8523,11.3102,0.972,0.0461,-0.0717,-0.0067,26.24
15337,1830,0.8882,11.3102,1.0247,0.1916,-0.0381,-0.0437,26.26
15347,1793,1.0702,11.4778,0.5315,0.3131,-0.0725,-0.0685,26.27
15357,1787,1.1636,11.8058,-0.0646,0.3456,-0.0778,-0.0733,26.26
15367,1794,0.9673,12.2224,-0.261,0.3128,-0.0125,-0.0528,26.25
15377,1831,0.5411,12.39,0.2897,0.2673,0.118,-0.0184,26.25
15387,1822,0.747,12.3804,1.5993,0.2467,0.1753,0.0474,26.26
15397,1790,1.3575,12.4498,2.9018,0.215,0.1287,0.1095,26.24
15407,1806,2.3439,12.1578,3.7493,0.1255,0.0815,0.1495,26.24
15411,1814,2.6791,11.8681,4.0558,0.0831,0.0573,0.1575,26.25
15421,1822,3.0622,10.9463,4.5681,-0.0187,0.0187,0.1172,26.23
15431,1867,3.6224,10.149,5.102,-0.1058,0.0573,-0.0216,26.25
15441,1878,3.5961,9.2201,5.5689,-0.1514,0.1242,-0.2425,26.27
15451,1892,3.4165,8.4898,6.2153,-0.1191,0.1503,-0.4975,26.27
15461,1902,3.4453,7.8602,6.6176,0.0509,0.0179,-0.6587,26.25
15471,1949,2.6887,7.4795,6.2489,0.3389,-0.2209,-0.7256,26.24
15481,1966,2.3559,7.2544,5.3774,0.6153,-0.4077,-0.6286,26.25
15491,2014,1.9225,7.2257,4.3335,0.8804,-0.5889,-0.4463,26.26
15501,2067,1.6783,7.1132,2.5163,0.9174,-0.6923,-0.2651,26.25
15511,2098,1.1923,6.8857,1.6448,0.7173,-0.6931,-0.1593,26.26
15521,2115,1.4222,6.8331,1.5203,0.3664,-0.7709,-0.0975,26.24
15531,2147,1.4557,7.0437,1.1325,-0.0693,-0.9174,-0.0645,26.24
15541,2132,1.3336,7.8171,0.6704,-0.4684,-0.9883,-0.0344,26.25
15551,2160,1.063,8.7963,0.5052,-0.7813,-1.0091,0.0445,26.26
15561,2171,1.0894,9.4499,0.407,-1.0408,-1.0016,0.1018,26.26
15571,2115,0.984,9.9695,0.8116,-1.2513,-0.9614,0.1143,26.25
15581,2000,0.8547,10.3813,1.719,-1.3747,-0.93,0.0842,26.24
15591,1927,0.7015,10.5105,2.66,-1.4,-0.9374,0.0477,26.26
15601,1872,0.0694,10.5297,3.8642,-1.3147,-0.983,-0.0293,26.25
15611,1822,0.0503,10.4291,4.2617,-1.1522,-1.1679,-0.118,26.26
15621,1811,0.2897,10.2041,3.8283,-0.9278,-1.3478,-0.1871,26.26
15631,1815,0.4549,9.8569,2.9449,-0.6422,-1.4552,-0.2462,26.26
15641,1779,0.644,9.3948,1.7549,-0.3485,-1.4568,-0.2825,26.25
15651,1773,0.8428,8.9256,0.7638,-0.081,-1.3432,-0.2984,26.26
15661,1783,1.1061,8.3989,-0.067,0.1346,-1.1682,-0.3067,26.27
15671,1775,1.2043,8.0709,-0.4453,0.2819,-0.963,-0.3088,26.25
15681,1764,1.2641,7.7261,-0.6704,0.348,-0.7621,-0.3136,26.27
15691,1749,1.2833,7.5848,-0.4669,0.3592,-0.6097,-0.3094,26.27
15701,1733,1.3815,7.4101,-0.3089,0.3384,-0.5023,-0.2878,26.25
15711,1762,1.4844,7.3143,-0.1963,0.3024,-0.4072,-0.2606,26.26
15721,1764,1.3599,7.2472,-0.0359,0.2561,-0.2934,-0.2188,26.26
15731,1739,1.1061,7.3694,0.3424,0.2236,-0.202,-0.1282,26.26
15741,1769,0.8882,7.3694,0.5674,0.1561,-0.1737,-0.0418,26.27
15751,1758,0.8188,7.2185,0.8356,0.02,-0.1956,0.025,26.27
15761,1741,0.7733,7.106,0.9529,-0.1029,-0.2254,0.0309,26.25
15771,1764,0.8236,7.2305,1.1875,-0.1713,-0.2718,0.0357,26.26
15781,1805,0.8715,7.5106,1.1109,-0.2585,-0.2854,0.0624,26.27
15791,1907,0.7542,7.8147,1.2905,-0.3451,-0.2665,0.0887,26.25
15801,1946,0.8356,8.0014,1.4006,-0.4343,-0.2846,0.1218,26.26
15805,1979,0.8404,8.0421,1.3336,-0.4727,-0.2934,0.1239,26.25
15815,1999,0.8092,7.9775,1.2043,-0.591,-0.3035,0.1223,26.24
15825,2005,0.8619,8.3534,1.2977,-0.6678,-0.2864,0.0893,26.26
15835,1889,0.8284,9.1411,1.6376,-0.6347,-0.3376,0.1764,26.25
15845,1726,0.7733,9.4475,1.6257,-0.4938,-0.4373,0.2734,26.25
15855,1658,0.9002,9.6295,1.3838,-0.3142,-0.5436,0.3424,26.23
15865,1671,1.1947,9.3015,0.8739,-0.1799,-0.5974,0.3717,26.25
15875,1695,1.3551,8.8681,0.4764,-0.1633,-0.5564,0.3328,26.26
15885,1696,1.3336,8.7724,0.5339,-0.1436,-0.3965,0.2257,26.25
15895,1717,1.3527,8.8083,0.4381,-0.1135,-0.1276,0.0957,26.24
15905,1716,1.2713,9.1602,0.6943,-0.049,0.1852,0.0048,26.24
15915,1725,1.4916,9.7037,1.1636,0.0632,0.4223,-0.0386,26.25
15925,1755,2.0638,10.252,1.2953,0.1511,0.5188,-0.0799,26.27
15935,1602,2.4995,10.7978,1.5658,0.1703,0.3914,-0.0917,26.27
15945,1487,2.4038,11.2671,1.4629,0.0943,0.1559,-0.0429,26.27
15955,3339,2.1428,11.5377,1.5012,0.0072,-0.0184,-0.0234,26.27
15965,4095,1.5993,11.6191,1.5371,-0.045,-0.0951,-0.0528,26.27
15975,4095,0.9457,11.6023,1.7214,-0.0354,-0.1015,-0.0887,26.25
15985,1241,0.3998,11.722,2.0087,0.0576,-0.0997,-0.1127,26.27
15995,1693,0.0503,11.9279,2.0997,0.1823,-0.0994,-0.1335,26.27
16005,1820,0.1173,12.1554,2.1021,0.2987,-0.0733,-0.1553,26.25
16015,1771,0.2083,12.1793,2.229,0.3269,-0.0634,-0.2046,26.28
16025,1808,0.4453,12.062,2.5402,0.2507,-0.0048,-0.2731,26.28
16035,1790,0.905,11.9231,2.8994,0.118,0.1074,-0.3246,26.25
16045,1826,1.4724,11.7962,3.304,-0.0869,0.2105,-0.3453,26.26
16055,1872,2.0973,11.734,3.802,-0.3533,0.2382,-0.3062,26.26
16065,1851,2.7557,11.7531,4.7573,-0.635,0.1343,-0.2254,26.26
16075,1872,3.3375,11.6574,5.7868,-0.8279,-0.0871,-0.1271,26.27
16085,1904,3.4644,11.3198,6.3925,-0.8647,-0.3536,-0.0381,26.27
16095,1909,3.0167,10.4004,6.1244,-0.7693,-0.5529,0.0304,26.26
16105,1915,2.0973,9.3039,5.8778,-0.5678,-0.6414,0.0914,26.26
16115,1936,0.9457,8.4324,5.7054,-0.1316,-0.6145,0.1692,26.26
16125,1969,-0.5626,7.7548,5.2481,0.5289,-0.4836,0.311,26.25
16135,2019,-1.7885,6.9384,4.2282,1.2612,-0.2571,0.4922,26.26
16145,2030,-2.569,6.1268,2.8563,1.8671,0.0648,0.6632,26.29
16155,2057,-2.7509,5.1882,1.1205,2.1416,0.4189,0.7072,26.28
16165,2033,-2.648,4.4772,-0.3496,1.9007,0.858,0.5604,26.28
16175,2064,-2.1404,4.2353,-0.4788,1.2766,1.2609,0.2856,26.28
16185,2094,-1.4078,4.7908,0.17,0.4916,1.5348,0.0203,26.27
16195,2097,-0.2322,5.7341,1.0463,-0.299,1.639,-0.1482,26.24
16199,2122,0.51,6.28,1.2522,-0.5921,1.6422,-0.1988,26.26
16209,2139,2.3224,8.2097,1.6712,-1.2804,1.5569,-0.3499,26.26
16219,2137,3.7733,10.6614,2.4062,-1.7525,1.4298,-0.4501,26.24
16229,2145,4.9536,13.0939,3.6296,-1.8663,1.2918,-0.4202,26.27
16239,2030,5.9855,14.9949,4.9009,-1.6233,1.165,-0.2286,26.28
16249,1948,6.6918,15.5336,5.7844,-1.1477,0.9979,0.0226,26.26
16259,1902,6.8642,14.4849,6.0693,-0.6113,0.7461,0.1964,26.25
16269,1876,6.45,12.8976,6.4069,-0.0834,0.304,0.2713,26.26
16279,1844,5.1188,11.3533,6.4643,0.5407,-0.3637,0.3424,26.24
16289,1831,3.2944,10.0604,5.9951,1.2039,-1.064,0.4596,26.26
16299,1790,1.4581,8.7053,4.6711,1.7816,-1.6169,0.6155,26.24
16309,1776,-0.0503,7.2903,2.7988,2.1085,-1.8961,0.6819,26.25
16319,1758,-1.2258,5.9041,0.4932,2.0792,-1.8906,0.5649,26.26
16329,1790,-2.399,4.6998,-1.8459,1.6553,-1.5545,0.1793,26.28
16339,1776,-3.5171,4.288,-3.0885,0.9808,-1.0059,-0.1639,26.27
16349,1799,-3.7254,4.051,-3.2226,0.263,-0.3989,-0.299,26.29
16359,1828,-2.7988,4.0606,-2.5762,-0.3483,0.0661,-0.2958,26.27
16369,1872,-1.3886,4.5274,-1.6065,-0.8745,0.3272,-0.3139,26.27
16379,1872,-0.0622,5.3439,-0.4094,-1.2686,0.392,-0.3211,26.28
16389,1889,1.0439,6.2872,0.723,-1.4568,0.3246,-0.2968,26.27
16399,1895,1.8794,7.2329,1.4653,-1.4408,0.1695,-0.2697,26.27
16409,1911,2.3343,8.0948,1.8627,-1.2694,-0.0051,-0.2422,26.27
16419,1953,2.4301,8.849,2.0494,-1.0008,-0.1948,-0.1988,26.27
16429,1967,2.2098,9.4116,2.083,-0.6843,-0.4037,-0.1338,26.27
16439,1963,1.7861,9.6438,1.8914,-0.3946,-0.6137,-0.0578,26.27
16449,1972,1.1349,9.6367,1.5036,-0.1665,-0.7938,0.0171,26.27
16459,2080,0.4956,9.4475,1.1277,-0.0069,-0.8889,0.0847,26.26
16469,2095,-0.0215,9.165,0.735,0.085,-0.8847,0.1154,26.27
16479,2190,-0.4142,8.8274,0.4429,0.1132,-0.7967,0.1087,26.28
16489,2263,-0.6776,8.5138,0.2562,0.0773,-0.663,0.0637,26.26
16499,2226,-0.8428,8.418,0.3041,0.0101,-0.5225,0.0125,26.27
16509,2153,-0.7661,8.5784,0.5818,-0.036,-0.4215,-0.0322,26.26
16519,1968,-0.6536,8.8705,0.8978,-0.029,-0.376,-0.0637,26.26
16529,1928,-0.5195,9.1722,1.1061,0.0437,-0.3531,-0.0674,26.26
16539,1894,-0.3519,9.4715,1.087,0.1759,-0.3163,-0.0472,26.26
16549,1936,-0.1101,9.8186,0.8859,0.3317,-0.2443,-0.02,26.25
16559,1936,0.1293,10.1442,0.4429,0.4338,-0.1596,0.0133,26.27
16569,1922,0.34,10.3621,-0.0766,0.4183,-0.0624,0.0498,26.26
16579,1930,0.5794,10.5728,-0.3591,0.3046,0.0179,0.0693,26.28
16589,1931,0.8475,10.7548,-0.3567,0.1015,0.0799,0.0565,26.28
16593,1936,0.9266,10.8481,-0.2658,0.0139,0.0965,0.0408,26.27
16603,1935,1.1085,11.1354,0.1939,-0.1639,0.113,-0.0069,26.27
16613,1691,1.1109,11.3749,0.8212,-0.2345,0.1031,-0.0293,26.26
16623,1900,1.3886,11.4826,1.1875,-0.1988,0.0815,-0.0152,26.28
16633,4095,1.6616,11.5855,1.1899,-0.126,0.0735,0.0109,26.27
16643,4095,1.9417,11.643,1.3264,-0.0781,0.0765,0.0791,26.25
16653,3664,2.2051,11.6789,1.6328,-0.0973,0.0405,0.1703,26.26
16663,1373,2.3679,11.7627,2.3487,-0.199,-0.06,0.271,26.26
16673,1855,2.4253,11.88,3.4333,-0.3568,-0.2198,0.3829,26.29
16683,1920,2.5139,11.8872,4.8147,-0.5465,-0.4037,0.4828,26.28
16693,1846,2.3846,11.8657,5.9903,-0.7157,-0.5644,0.5196,26.27
16703,1855,2.1452,11.7076,7.1323,-0.8231,-0.5654,0.4978,26.27
16713,1840,1.8387,11.4132,7.8578,-0.7917,-0.3776,0.412,26.26
16723,1893,1.6688,11.054,8.3103,-0.6046,-0.0695,0.2457,26.27
16733,1923,1.8435,10.7093,8.2839,-0.2654,0.2244,0.0397,26.28
16743,1936,2.1237,10.4291,7.762,0.2097,0.389,-0.1652,26.29
16753,1981,2.3942,9.9,6.5721,0.7413,0.3496,-0.3232,26.29
16763,2031,2.5857,9.1794,4.9656,1.1959,0.1532,-0.4279,26.28
16773,2016,2.7677,8.0661,2.8299,1.6276,-0.1673,-0.5119,26.28
16783,2047,2.8659,6.7924,0.6033,1.9231,-0.4828,-0.5574,26.28
16793,2099,3.0095,5.3247,-1.1875,2.0027,-0.7202,-0.5766,26.27
16803,2130,3.1891,4.2689,-1.913,1.7906,-0.943,-0.5308,26.28
16813,2135,3.4812,3.474,-1.5275,1.2441,-1.2095,-0.4223,26.29
16823,2171,3.5602,3.3112,-0.4405,0.4341,-1.5156,-0.2974,26.27
16833,2148,3.1484,3.814,0.9481,-0.534,-1.8394,-0.1737,26.28
16843,2160,2.0853,4.8794,2.3535,-1.445,-2.0824,0.0592,26.29
16853,2217,0.9864,6.2968,3.0526,-2.1885,-2.1642,0.3331,26.27
16863,2191,-0.1197,8.1834,3.3495,-2.7587,-2.0169,0.5492,26.28
16873,2171,-0.8045,10.3022,3.8283,-3.0212,-1.6355,0.6768,26.28
16883,2252,-0.9744,12.2224,4.4053,-2.8093,-1.1466,0.5947,26.3
16893,2243,-0.8356,13.4794,5.1212,-2.1909,-0.6659,0.3144,26.28
16903,2237,-0.3472,13.9486,5.4061,-1.291,-0.2465,-0.0165,26.27
16913,2131,0.3448,13.6134,5.1906,-0.3443,0.0741,-0.3102,26.27
16923,2096,1.0965,12.7467,4.7621,0.5002,0.2609,-0.5321,26.27
16933,2060,1.7837,11.6646,4.0486,1.1791,0.2987,-0.644,26.28
16943,1983,2.3487,10.41,3.1149,1.6611,0.1817,-0.6582,26.29
16953,1938,2.8204,9.1243,1.7621,1.9406,-0.0253,-0.6235,26.26
16963,1906,3.055,8.0062,0.3855,2.011,-0.2172,-0.5662,26.29
16973,1854,3.0718,7.027,-0.8667,1.8455,-0.3384,-0.4346,26.28
16983,1831,3.1173,6.0478,-1.3838,1.5034,-0.4101,-0.2737,26.27
16987,1843,3.055,5.7126,-1.4341,1.3347,-0.4418,-0.2129,26.27
16997,1850,2.8419,5.0781,-1.2546,0.8439,-0.5438,-0.0738,26.26
17007,1815,2.5163,4.8483,-0.8547,0.3112,-0.6664,0.0234,26.27
17017,1827,1.9154,5.3199,-0.3184,-0.1367,-0.7528,0.0813,26.28
17027,1830,1.4222,5.7772,0.0239,-0.4898,-0.769,0.1351,26.26
17037,1840,1.0487,6.2058,0.2921,-0.7525,-0.736,0.1567,26.27
17047,1827,0.7661,6.7301,0.4717,-0.9292,-0.6603,0.1444,26.27
17057,1875,0.565,7.3861,0.5914,-1.0024,-0.5494,0.1087,26.27
17067,1873,0.5483,8.0924,0.6608,-0.9848,-0.421,0.0637,26.27
17077,1895,0.6847,8.7101,0.7446,-0.8681,-0.2854,0.0027,26.28
17087,1857,0.9409,9.2057,0.9936,-0.664,-0.1636,-0.0498,26.29
17097,1840,1.2234,9.4763,1.1253,-0.4005,-0.0855,-0.0821,26.28
17107,1856,1.4916,9.481,1.3001,-0.1223,-0.037,-0.0935,26.29
17117,1886,1.5993,9.2656,1.2426,0.1412,0.0053,-0.0839,26.29
17127,1953,1.5395,8.8897,0.9266,0.3421,0.0789,-0.0589,26.29
17137,2006,1.4174,8.6072,0.589,0.4501,0.1625,-0.0266,26.27
17147,2133,1.3719,8.43,0.3687,0.4807,0.2409,0.0056,26.27
17157,2095,1.3767,8.4611,0.3831,0.4711,0.2856,0.0298,26.28
17167,2145,1.5395,8.5066,0.4046,0.4426,0.311,0.0301,26.29
17177,1940,1.6759,8.8011,0.577,0.4157,0.32,0.0048,26.29
17187,1799,1.8938,9.2057,0.6991,0.4194,0.3448,-0.0512,26.27
17197,1771,2.2242,9.6462,0.7207,0.4199,0.3469,-0.1282,26.28
17207,1758,2.5379,10.1203,0.5938,0.3957,0.2902,-0.2022,26.28
17217,1723,2.5929,10.6398,0.4908,0.3477,0.1964,-0.2483,26.28
17227,1799,2.5067,11.0301,0.6225,0.3072,0.0309,-0.2475,26.27
17237,1805,2.4205,11.2599,0.7135,0.2825,-0.1439,-0.2326,26.27
17247,1792,2.1524,11.2934,0.9625,0.2976,-0.2886,-0.2041,26.29
17257,1792,1.7382,10.987,1.1301,0.2902,-0.3624,-0.1679,26.3
17267,1797,1.2306,10.6135,1.1301,0.2454,-0.352,-0.1338,26.29
17277,1505,0.7422,10.4148,0.8571,0.1884,-0.2531,-0.1151,26.28
17287,2119,0.316,10.6901,0.5267,0.1527,-0.1226,-0.1111,26.27
17297,4095,-0.0455,11.1977,-0.067,0.1167,-0.0333,-0.089,26.28
17307,4095,-0.1772,11.6358,-0.5076,0.0304,0.0242,-0.0767,26.27
17317,2679,0.091,11.9399,-0.2777,-0.0229,0.0645,-0.1156,26.26
17327,1264,0.5483,11.9662,0.5243,0.0155,0.1271,-0.194,26.27
17337,1871,1.0199,11.7555,1.6783,0.1391,0.1716,-0.283,26.29
17347,1841,1.6113,11.473,2.2577,0.2014,0.1844,-0.3778,26.28
17357,1778,2.0087,11.2216,2.9137,0.1007,0.149,-0.4295,26.28
17367,1779,2.2745,11.1139,3.5314,-0.0874,0.0341,-0.4258,26.26
17377,1835,2.4565,10.9942,4.142,-0.2681,-0.1402,-0.3653,26.27
17381,1840,2.5594,10.9415,4.3311,-0.3134,-0.2092,-0.3299,26.28
17391,1837,2.6959,10.6422,4.6017,-0.3158,-0.3389,-0.2446,26.29
17401,1859,2.1691,10.1347,4.6687,-0.2076,-0.3592,-0.141,26.28
17411,1906,1.4988,9.517,4.7094,0.0434,-0.247,0.0069,26.28
17421,1903,0.9337,8.8322,4.4365,0.4034,-0.0426,0.1452,26.28
17431,1945,0.2562,8.0445,3.8355,0.7639,0.1887,0.2542,26.29
17441,1897,-0.4501,7.0102,2.8778,1.0664,0.4048,0.352,26.28
17451,1941,-1.1588,5.964,1.6376,1.247,0.5918,0.4319,26.29
17461,2035,-1.5969,5.0398,0.3783,1.2033,0.7645,0.4357,26.3
17471,1971,-1.7262,4.3455,-0.2658,0.9078,0.9065,0.3693,26.3
17481,1994,-1.3934,4.3096,-0.2753,0.397,0.9651,0.2348,26.29
17491,2013,-0.8452,4.8243,0.3112,-0.247,0.9646,0.0698,26.28
17501,2032,0.261,5.7413,0.9673,-0.9321,0.9196,-0.1077,26.29
17511,2046,1.3192,7.0868,1.5682,-1.5735,0.8335,-0.3016,26.29
17521,2077,2.1955,8.8226,2.1644,-2.0552,0.7237,-0.4167,26.28
17531,2066,2.897,10.8002,3.0502,-2.287,0.5918,-0.4207,26.28
17541,2083,3.5314,12.8784,4.276,-2.1637,0.445,-0.2777,26.28
17551,2126,4.1563,14.2599,5.5258,-1.756,0.3083,-0.0426,26.29
17561,2151,4.3862,14.5759,6.1675,-1.2084,0.2204,0.1769,26.29
17571,2066,4.2234,13.9055,6.3327,-0.6179,0.1503,0.3136,26.29
17581,1936,3.6368,13.0221,6.0262,0.0056,-0.0093,0.3866,26.29
17591,1872,2.7509,12.0716,5.1332,0.6363,-0.2161,0.4271,26.28
17601,1786,1.6783,10.9559,3.8379,1.1828,-0.3653,0.4274,26.29
17611,1709,0.6129,9.7755,2.3152,1.586,-0.405,0.3901,26.28
17621,1681,-0.4142,8.4348,0.3256,1.7909,-0.3211,0.275,26.28
17631,1669,-1.3767,7.1994,-1.3838,1.7176,-0.1085,0.1127,26.28
17641,1681,-1.9728,6.2441,-2.5355,1.3872,0.105,-0.0171,26.28
17651,1678,-2.0399,5.5545,-3.158,0.8479,0.2182,-0.0887,26.29
17661,1642,-1.5826,5.2648,-3.0742,0.1943,0.2025,-0.1106,26.29
17671,1645,-0.9888,5.612,-2.5762,-0.4151,0.0973,-0.0989,26.3
17681,1735,-0.3639,6.3111,-2.0255,-0.8903,0.0008,-0.0642,26.29
17691,1795,0.1987,7.1419,-1.3479,-1.1951,-0.0584,-0.0091,26.28
17701,1759,0.759,7.9679,-0.5459,-1.2875,-0.0858,0.0368,26.29
17711,1826,1.1205,8.8202,0.2346,-1.1975,-0.0823,0.0661,26.3
17721,1815,1.3982,9.5289,0.9242,-0.9987,-0.0738,0.0917,26.32
17731,1871,1.494,9.9742,1.4126,-0.7709,-0.11,0.1186,26.31
17741,1861,1.4892,10.0892,1.7909,-0.546,-0.1953,0.1484,26.3
17751,1857,1.3288,10.0437,2.1284,-0.3022,-0.2912,0.1644,26.31
17761,1899,1.0247,9.8402,2.0901,-0.0312,-0.3347,0.1628,26.29
17771,1875,0.6393,9.3637,1.5586,0.2073,-0.2902,0.1484,26.3
17775,1823,0.5315,9.0908,1.2234,0.275,-0.2526,0.1362,26.3
17785,1767,0.3352,8.5617,0.5267,0.3789,-0.1468,0.0967,26.3
17795,1936,0.4286,8.26,0.1197,0.4351,-0.0797,0.0538,26.29
17805,1950,0.5004,8.1499,-0.012,0.462,-0.1151,0.0011,26.28
17815,1953,0.5076,8.1163,0.079,0.4527,-0.2289,-0.0232,26.3
17825,2115,0.4669,8.2025,0.3376,0.4189,-0.3896,-0.0362,26.3
17835,2075,0.3352,8.2528,0.3232,0.3714,-0.5183,-0.0328,26.3
17845,2084,0.2945,8.3893,0.2945,0.3331,-0.5569,-0.0218,26.29
17855,1877,0.4022,8.6718,0.2155,0.312,-0.5049,-0.0104,26.3
17865,1745,0.5938,9.0788,0.2514,0.2883,-0.3821,0.0021,26.31
17875,1659,0.7278,9.6869,0.3208,0.2622,-0.2148,0.0117,26.31
17885,1691,0.9505,10.2615,0.2801,0.1982,-0.0799,0.0115,26.3
17895,1717,1.2378,10.7787,0.2658,0.0901,-0.024,-0.0085,26.3
17905,1685,1.4174,11.2432,0.3639,0.0248,-0.0402,-0.0458,26.3
17915,1733,1.5874,11.4706,0.328,0.0837,-0.0618,-0.1018,26.31
17925,1755,1.6831,11.4778,0.17,0.1937,-0.0722,-0.1695,26.29
17935,1753,1.9489,11.2432,0.1437,0.315,-0.0794,-0.1889,26.31
17945,1721,2.2984,11.0253,0.2873,0.4373,-0.0861,-0.1863,26.3
17955,1411,2.624,10.9583,0.4238,0.5369,-0.101,-0.1633,26.3
17965,2018,2.9018,11.0038,0.7422,0.5473,-0.1831,-0.0959,26.31
17975,4095,2.8635,11.3126,1.5826,0.5193,-0.3184,-0.0005,26.31
17985,4095,2.6121,11.6765,2.5259,0.4666,-0.4943,0.0994,26.3
17995,2838,2.1069,12.0189,3.2513,0.3896,-0.6715,0.1804,26.31
18005,1264,1.4293,12.0237,3.711,0.2547,-0.7639,0.2406,26.3
18015,1731,1.1444,11.8298,3.9313,0.0999,-0.7061,0.2401,26.31
18025,1771,0.8068,11.5377,3.9696,-0.1127,-0.5654,0.1476,26.31
18035,1744,0.3831,11.4108,4.0773,-0.3592,-0.4759,-0.0354,26.3
18045,1722,-0.1484,11.1474,3.7613,-0.5481,-0.4186,-0.19,26.3
18055,1804,-0.0527,10.3501,3.1436,-0.6464,-0.3283,-0.2609,26.3
18065,1817,0.7207,9.232,2.7366,-0.5974,-0.3075,-0.3102,26.29
18075,1901,1.245,7.8721,1.8962,-0.4682,-0.3427,-0.3589,26.31
18085,1936,1.4222,6.8738,1.1995,-0.2691,-0.3421,-0.3856,26.3
18095,1961,1.7286,5.9089,0.7326,-0.0368,-0.3456,-0.3853,26.29
18105,1965,2.2936,5.0278,0.7207,0.1471,-0.4237,-0.3789,26.3
18115,1970,2.8204,4.5035,1.142,0.2369,-0.5801,-0.3291,26.29
18125,2017,3.2082,4.4053,1.7238,0.2049,-0.7514,-0.2212,26.29
18135,2062,3.3902,4.6783,2.1093,-0.0242,-0.9324,-0.0871,26.3
18145,2065,3.3998,5.3726,2.4181,-0.4431,-1.0965,0.045,26.31
18155,2098,3.1963,6.5098,2.7174,-0.9683,-1.2367,0.13,26.31
18165,2160,2.6001,8.0972,2.9999,-1.4549,-1.2934,0.1695,26.31
18169,2117,2.2697,8.8705,3.1915,-1.6044,-1.2921,0.1849,26.31
18179,2119,1.3719,10.9367,3.7134,-1.8122,-1.259,0.2321,26.3
18189,2144,0.4884,13.0676,4.288,-1.6944,-1.1834,0.2587,26.31
18199,2201,-0.3136,14.7363,4.7309,-1.3078,-1.0595,0.2228,26.29
18209,2234,-0.7542,15.0763,4.4819,-0.7946,-0.878,0.1135,26.31
18219,2288,-0.8667,13.5488,3.2226,-0.5052,-0.6901,-0.06,26.3
18229,2192,-0.668,12.0261,2.6288,-0.4578,-0.6025,-0.1655,26.31
18239,2269,-0.2322,10.6734,2.3056,-0.4048,-0.5646,-0.2318,26.3
18249,2209,0.2251,9.4308,1.9417,-0.3035,-0.4892,-0.3107,26.31
18259,2062,0.6321,8.4827,1.4413,-0.166,-0.3645,-0.4253,26.32
18269,1989,0.8691,7.9942,1.0439,-0.012,-0.1943,-0.4959,26.32
18279,1831,1.4006,7.446,0.7542,0.1428,-0.0224,-0.4898,26.32
18289,1821,2.0183,7.003,0.4956,0.2585,0.1111,-0.4405,26.31
18299,1786,2.7342,6.6942,0.261,0.2814,0.1671,-0.3592,26.3
18309,1744,3.371,6.4284,0.1772,0.1857,0.1055,-0.2619,26.29
18319,1705,3.7421,6.3518,0.2251,-0.0051,-0.0959,-0.1529,26.3
18329,1759,3.6152,6.6702,0.4597,-0.2201,-0.388,-0.0501,26.32
18339,1679,2.7964,7.2209,0.4764,-0.3616,-0.6019,0.0562,26.32
18349,1674,1.9201,7.6591,0.5028,-0.433,-0.6131,0.13,26.31
18359,1678,1.221,8.1163,0.6776,-0.4247,-0.4844,0.1455,26.3
18369,1693,0.6704,8.5976,0.9385,-0.3411,-0.2966,0.1351,26.31
18379,1699,0.6249,9.0836,0.9864,-0.1881,-0.1242,0.1439,26.29
18389,1722,0.6129,9.3925,0.9242,-0.033,-0.0242,0.1348,26.3
18399,1690,0.4166,9.3039,0.8715,0.0426,0.056,0.121,26.32
18409,1739,0.4166,8.9639,0.8811,0.0027,0.1407,0.0898,26.31
18419,1703,0.4142,8.6718,0.9385,-0.0975,0.1649,0.0341,26.32
18429,1695,0.5986,8.4587,0.9984,-0.1697,0.1484,-0.028,26.3
18439,1625,0.668,8.3989,0.972,-0.1711,0.125,-0.0746,26.31
18449,1648,0.7015,8.3725,0.8284,-0.1063,0.1407,-0.0957,26.32
18459,1690,0.7877,8.3342,0.656,-0.0237,0.1993,-0.1098,26.31
18469,1663,0.7805,8.4611,0.6177,0.0711,0.2454,-0.1258,26.29
18479,1734,0.7566,8.6095,0.5866,0.2038,0.2473,-0.1282,26.3
18489,1773,1.0678,8.8274,0.6488,0.3661,0.2627,-0.1322,26.3
18499,1905,1.5897,9.1818,0.8404,0.5002,0.3347,-0.1138,26.31
18509,1959,1.8196,9.4475,1.0606,0.587,0.3613,-0.0746,26.3
18519,1989,2.0638,9.6079,1.0606,0.6174,0.3131,-0.0528,26.31
18529,1950,2.2314,9.9455,0.814,0.5718,0.2505,-0.061,26.32
18539,1921,2.2984,10.4363,0.7805,0.4588,0.2132,-0.0869,26.32
18549,1671,1.9321,11.0995,1.0343,0.3267,0.126,-0.1114,26.29
18559,1659,1.3791,11.6167,1.3072,0.206,0.0261,-0.1055,26.29
18563,1675,1.142,11.7507,1.4724,0.1652,-0.0157,-0.0938,26.29
18573,1623,0.6584,11.9255,1.8914,0.1204,-0.1162,-0.0552,26.29
18583,1707,0.2777,11.8417,2.0853,0.1633,-0.1641,-0.0125,26.31
18593,1713,0.0311,11.6023,2.1332,0.2521,-0.126,0.025,26.32
18603,1725,-0.1149,11.4108,2.3367,0.3293,-0.0312,0.06,26.29
18613,1781,-0.1604,11.2384,2.5355,0.3592,0.0501,0.0789,26.3
18623,1747,-0.1006,10.9846,2.7438,0.3016,0.1029,0.0589,26.3
18633,1767,0.0814,10.7452,2.9832,0.1519,0.1897,0.0269,26.3
18643,1520,0.7422,10.6662,3.2729,-0.0027,0.3174,-0.041,26.3
18653,2099,1.0965,10.5105,3.4596,-0.1913,0.4141,-0.1124,26.31
18663,4095,1.4868,10.3621,3.5099,-0.3904,0.4602,-0.1338,26.31
18673,4095,1.9632,10.4244,3.5314,-0.5417,0.4533,-0.122,26.32
18683,2948,2.2601,10.6805,3.5985,-0.5764,0.4485,-0.0863,26.3
18693,1251,2.1644,10.4842,3.5889,-0.5156,0.4828,0.008,26.3
18703,1838,1.9537,9.9503,3.5554,-0.4367,0.5049,0.1399,26.31
18713,1696,1.5538,9.2057,3.4907,-0.3222,0.4815,0.2513,26.3
18723,1747,0.8882,8.3821,3.2753,-0.1767,0.4085,0.3523,26.31
18733,1738,0.0144,7.5633,3.0215,-0.0013,0.3251,0.4844,26.32
18743,1708,-0.7829,6.5793,2.4134,0.2041,0.3251,0.5899,26.32
18753,1746,-1.2761,5.6024,1.4317,0.3365,0.4429,0.5998,26.33
18763,1623,-1.7765,5.0661,0.9337,0.3571,0.7163,0.4533,26.32
18773,1801,-1.8459,5.0039,1.0439,0.3094,0.9515,0.2499,26.32
18783,1729,-1.5802,5.4348,1.5371,0.2435,1.0709,0.1455,26.31
18793,1685,-0.5195,6.2991,1.9034,0.133,1.0973,0.1063,26.32
18803,1852,0.7638,7.6638,2.3511,-0.0416,1.0549,0.0815,26.32
18813,1806,1.7741,9.3206,2.5379,-0.1391,0.9681,0.0562,26.32
18823,1901,2.557,11.0612,2.5738,-0.1721,0.8503,0.0386,26.3
18833,1954,3.0502,12.6007,2.6791,-0.1439,0.7426,0.0655,26.3
18843,2021,3.4931,13.8505,3.2825,-0.0472,0.6779,0.1258,26.32
18853,2064,3.7278,14.4203,4.0151,0.1154,0.684,0.1761,26.31
18863,2033,3.5434,14.1354,4.3527,0.2745,0.837,0.1879,26.34
18873,2114,2.6552,12.5001,4.0462,0.2739,1.1199,0.1516,26.33
18883,2155,1.9752,10.6326,3.9935,0.1124,1.2313,0.0893,26.34
18893,2205,1.4772,9.4308,3.9049,0.0298,1.1466,0.0871,26.33
18903,2195,1.2019,8.4827,3.3016,0.0314,0.9601,0.1447,26.32
18913,2271,1.0247,7.841,2.3535,0.0357,0.6763,0.223,26.31
18923,2272,0.8332,7.4077,1.2091,0.0248,0.3323,0.2705,26.31
18933,2238,0.431,7.1204,0.1197,-0.0096,0.0317,0.2779,26.34
18943,2147,-0.1077,7.1443,-0.5004,-0.0168,-0.1258,0.2587,26.33
18953,2035,-0.5507,7.3287,-0.6991,0.0338,-0.1231,0.2292,26.33
18957,2006,-0.7805,7.4316,-0.6847,0.0608,-0.0887,0.219,26.33
18967,1952,-1.0223,7.683,-0.3759,0.1164,0.0629,0.186,26.32
18977,1904,-0.8763,7.8434,0.0096,0.1226,0.2116,0.1591,26.33
18987,1904,-0.4381,7.8075,0.4022,0.0576,0.2705,0.1306,26.31
18997,1890,-0.0551,7.8626,0.6728,-0.0434,0.2523,0.1021,26.31
19007,1867,0.0838,8.0685,0.7925,-0.1204,0.2022,0.0759,26.31
19017,1927,0.1006,8.248,0.7039,-0.1612,0.1468,0.0626,26.29
19027,1929,0.0527,8.3701,0.565,-0.1721,0.0994,0.0496,26.32
19037,1893,-0.1317,8.4084,0.407,-0.17,0.0909,0.044,26.33
19047,2000,-0.2083,8.3701,0.249,-0.1729,0.1114,0.0533,26.33
19057,1951,-0.2227,8.2911,0.1437,-0.1801,0.1407,0.073,26.31
19067,2007,-0.0862,8.2241,0.0814,-0.1785,0.1636,0.0895,26.33
19077,1983,0.146,8.1786,0.2011,-0.1593,0.1737,0.0978,26.32
19087,2015,0.4046,8.2887,0.4956,-0.1092,0.1665,0.1015,26.32
19097,1999,0.6153,8.4803,0.8523,-0.0408,0.1447,0.1021,26.32
19107,2071,0.6249,8.7053,1.2091,0.0221,0.1124,0.1053,26.33
19117,1994,0.5578,8.9064,1.4389,0.0863,0.1005,0.1138,26.33
19127,1971,0.5722,9.0142,1.3838,0.1452,0.1282,0.1378,26.33
19137,1974,0.7159,9.1051,1.0989,0.1833,0.1913,0.1788,26.34
19147,2039,0.8092,9.2656,0.8068,0.1836,0.2595,0.2156,26.33
19157,1979,0.8356,9.5672,0.6967,0.1322,0.2974,0.2369,26.32
19167,2033,0.8643,10.0173,0.7661,0.0765,0.3003,0.2478,26.31
19177,1971,0.8021,10.5034,0.8667,0.0418,0.3062,0.235,26.32
19187,1994,0.7661,11.0253,0.9002,0.037,0.3373,0.2036,26.32
19197,2109,0.8236,11.4778,0.8906,0.0714,0.3677,0.1828,26.32
19207,2243,0.8619,11.6837,0.7661,0.1183,0.3984,0.1729,26.31
19217,2246,0.8811,11.6693,0.7829,0.1695,0.4394,0.1727,26.32
19227,2261,0.8787,11.406,0.8811,0.2249,0.4882,0.1948,26.33
19237,2239,0.996,10.9774,0.9242,0.2987,0.5692,0.234,26.31
19247,2064,1.3408,10.4004,0.9098,0.3608,0.6675,0.2582,26.32
19257,1965,1.8651,9.8282,0.8428,0.4064,0.7541,0.2619,26.33
19267,1933,2.3942,9.4403,0.8811,0.4322,0.805,0.2518,26.32
19277,1845,2.9137,9.3422,1.2522,0.4461,0.7581,0.243,26.33
19287,1933,3.3974,9.3685,2.0686,0.4343,0.5428,0.2321,26.34
19297,1898,3.1149,9.7205,2.7821,0.4325,0.202,0.223,26.32
19307,1937,2.5738,10.0628,3.1316,0.4495,0.0037,0.2382,26.32
19317,1947,2.0518,10.4267,3.4931,0.4509,-0.0794,0.2678,26.33
19327,1915,1.4365,10.805,3.814,0.3901,-0.1258,0.2814,26.32
19337,1917,0.7997,11.0995,3.9097,0.2414,-0.1727,0.271,26.33
19347,1584,0.2011,11.2911,4.0582,0.0226,-0.2278,0.2395,26.33
19351,1531,-0.0551,11.2982,4.118,-0.0698,-0.2497,0.2241,26.33
19361,2903,-0.4597,11.0277,4.0175,-0.283,-0.2521,0.1514,26.33
19371,4095,-0.5746,10.4411,3.8954,-0.4261,-0.1825,0.0203,26.32
19381,4095,-0.5148,9.6845,3.6248,-0.4421,-0.0951,-0.1258,26.33
19391,2366,-0.3831,8.8107,3.0358,-0.3131,-0.0197,-0.2382,26.33
19401,1563,-0.1077,7.7572,2.0327,-0.06,0.0573,-0.32,26.33
19411,2029,0.4573,6.5098,0.9505,0.2419,0.1524,-0.3643,26.33
19421,1958,1.008,5.2553,0.2538,0.4924,0.1852,-0.3858,26.34
19431,1929,1.664,4.2569,0.2945,0.6083,0.0762,-0.3325,26.32
19441,1916,2.3391,3.7397,0.8092,0.5031,-0.182,-0.2268,26.34
19451,1990,2.3032,4.2282,1.6017,0.1737,-0.4607,-0.0717,26.34
19461,2031,1.6927,5.4229,2.3463,-0.2268,-0.514,0.0506,26.35
19471,1973,1.0127,7.0797,3.0813,-0.6187,-0.4128,0.1178,26.34
19481,2019,0.2825,9.1626,3.632,-0.9089,-0.251,0.1804,26.33
19491,2037,-0.4334,11.5185,3.9049,-1.0128,-0.0719,0.2174,26.33
19501,2029,-0.984,13.6661,3.893,-0.9457,0.1095,0.2433,26.34
19511,2067,-1.2522,14.9398,3.8978,-0.8103,0.2345,0.2316,26.35
19521,2112,-1.3934,15.2774,3.7278,-0.6238,0.3384,0.1828,26.34
19531,2176,-1.2546,14.5496,3.5482,-0.3989,0.5025,0.1218,26.33
19541,2150,-0.905,13.283,3.1125,-0.1215,0.7647,0.0674,26.34
19551,2170,-0.2801,11.7029,2.6097,0.1764,1.0629,0.0107,26.34
19561,2254,0.5842,9.8904,2.0327,0.3837,1.2761,-0.0408,26.34
19571,2194,1.5395,8.2887,1.5275,0.4455,1.3366,-0.0687,26.35
19581,2364,2.5259,7.0725,1.0223,0.3794,1.2215,-0.0416,26.33
19591,2304,3.0526,6.4332,0.5315,0.1657,0.9838,-0.0048,26.33
19601,2210,3.45,6.3638,0.8284,-0.0986,0.7647,0.0405,26.34
19611,2367,3.1532,6.9863,1.1109,-0.3,0.5953,0.0823,26.33
19621,2323,2.411,7.6016,1.2594,-0.4311,0.5838,0.149,26.32
19631,2350,1.8818,8.0565,1.6137,-0.4791,0.659,0.2084,26.32
19641,2261,1.7526,8.3677,2.0566,-0.4522,0.728,0.2385,26.32
19651,2327,1.3288,8.7676,2.1955,-0.389,0.7386,0.2585,26.32
19661,2111,0.9002,9.1459,2.0949,-0.2582,0.8319,0.2753,26.33
19671,2064,0.7518,9.153,2.1476,-0.0997,0.9707,0.2777,26.33
19681,1911,0.6919,9.0333,2.1883,0.0314,1.0682,0.2579,26.31
19691,2042,0.0239,8.7676,2.0853,0.1037,1.1106,0.2649,26.32
19701,1975,-0.3136,8.4467,1.9058,0.1332,1.2497,0.2574,26.33
19711,1942,-0.1269,8.2121,1.9393,0.1572,1.4679,0.2665,26.32
19721,2046,0.565,8.0014,2.2338,0.1759,1.5937,0.2787,26.32
19731,2034,1.4916,7.8578,2.332,0.1529,1.6507,0.2697,26.33
19741,2071,2.4636,7.8075,2.4397,0.0711,1.6571,0.2454,26.33
19745,2037,2.8563,7.8554,2.4948,0.0317,1.635,0.235,26.32
19755,2082,3.3734,8.0565,2.6264,-0.0557,1.5151,0.2249,26.32
19765,2128,3.2609,8.2384,2.5115,-0.0986,1.3768,0.2233,26.33
19775,2112,2.8491,8.4036,2.2625,-0.0871,1.3158,0.2305,26.33
19785,2297,2.3607,8.4922,2.1261,-0.0488,1.3089,0.2441,26.32
19795,2153,1.9944,8.5545,2.0399,-0.0213,1.3299,0.2723,26.33
19805,2308,1.8316,8.6,1.8435,-0.0346,1.339,0.3155,26.34
19815,2245,1.4988,8.758,1.6448,-0.1252,1.3504,0.3589,26.32
