time_ms, ECG, accX, accY, accZ, gyroX, gyroY, gyroZ, temp_C
431,371,-3.0263,8.7939,-2.0016,-0.1282,0.1127,0.0045,28.55
441,1194,-2.9353,8.7508,-1.9848,-0.081,0.1063,0.0011,28.56
451,1133,-2.8347,8.7029,-2.047,-0.0362,0.0869,0.0024,28.58
461,1154,-2.739,8.6766,-2.1524,-0.0123,0.0488,0.0096,28.59
471,1227,-2.6911,8.667,-2.2697,-0.0112,-0.0048,0.0187,28.57
481,1252,-2.6576,8.6981,-2.3631,-0.0173,-0.0629,0.0234,28.58
491,1292,-2.6097,8.7508,-2.3774,-0.0139,-0.118,0.0274,28.58
501,1344,-2.5953,8.7915,-2.332,0.0176,-0.1553,0.0338,28.57
511,1399,-2.6025,8.8418,-2.3942,0.0709,-0.1727,0.0349,28.59
521,1395,-2.6288,8.916,-2.4948,0.1244,-0.174,0.0384,28.59
531,1515,-2.6384,8.9998,-2.5187,0.1572,-0.1751,0.0458,28.58
541,1535,-2.6336,9.0525,-2.4277,0.1679,-0.1839,0.0568,28.61
551,1595,-2.5402,9.1602,-2.2769,0.1711,-0.194,0.0687,28.62
561,1681,-2.4804,9.3182,-1.9345,0.1713,-0.1966,0.0714,28.6
571,1682,-2.5163,9.5816,-1.4461,0.1751,-0.2081,0.0629,28.6
581,1686,-2.6911,9.9671,-0.8978,0.1577,-0.2337,0.0386,28.62
591,1759,-3.0718,10.3813,-0.3807,0.1079,-0.2715,0.0115,28.62
601,1727,-3.5458,10.7548,0.1245,0.0234,-0.3187,-0.0269,28.62
611,1776,-4.1228,11.0468,0.6512,-0.0791,-0.3643,-0.0845,28.6
621,1721,-4.719,11.3174,1.0606,-0.1785,-0.4,-0.1463,28.62
631,1666,-5.2241,11.5281,1.3503,-0.2081,-0.385,-0.211,28.62
641,1719,-5.5857,11.6981,1.3575,-0.1316,-0.3099,-0.2555,28.61
651,1661,-5.5378,11.5855,1.0511,0.0437,-0.2062,-0.2766,28.6
661,1635,-5.0542,11.1977,0.4046,0.259,-0.1108,-0.2737,28.61
671,1622,-4.1731,10.5848,-0.3136,0.4359,-0.0738,-0.2497,28.62
681,1616,-3.0909,9.8857,-0.7518,0.5193,-0.15,-0.2073,28.62
691,1585,-1.9728,9.2656,-0.8859,0.4986,-0.3395,-0.1636,28.63
701,1616,-1.1205,8.8011,-0.7997,0.3832,-0.5875,-0.1282,28.63
711,1582,-0.5962,8.4276,-0.498,0.2094,-0.8487,-0.1138,28.63
721,1565,-0.4621,8.2576,-0.012,0.0274,-1.0805,-0.125,28.63
731,1473,-0.6201,8.1977,0.6656,-0.1135,-1.2465,-0.1537,28.64
741,1475,-1.0223,8.1403,1.4269,-0.17,-1.3454,-0.1945,28.64
751,1808,-1.561,8.0996,2.1404,-0.1567,-1.3901,-0.218,28.64
761,1693,-2.1691,8.0014,2.7509,-0.1005,-1.3952,-0.2166,28.64
771,1661,-2.794,7.9631,3.0311,-0.0298,-1.3763,-0.1871,28.64
781,1776,-3.395,7.9655,3.0119,0.0181,-1.3312,-0.129,28.66
791,1717,-3.96,8.0469,2.6743,0.0434,-1.2457,-0.061,28.65
801,1679,-4.4245,8.2504,2.1859,0.0429,-1.1183,0.0112,28.66
811,1535,-4.7812,8.5712,1.6807,0.0312,-0.9646,0.0783,28.67
821,1815,-5.0518,8.9352,1.1516,0.0285,-0.7949,0.1338,28.67
826,1845,-5.1284,9.1004,0.9002,0.0328,-0.724,0.1561,28.67
836,1703,-5.2218,9.56,0.2634,0.0469,-0.5183,0.215,28.67
846,1675,-5.1332,9.8258,-0.1772,0.0594,-0.332,0.2577,28.68
856,1872,-4.8339,9.8665,-0.4381,0.0602,-0.1596,0.2958,28.68
866,1746,-4.2473,9.7516,-0.4405,0.0266,-0.0458,0.328,28.68
876,1882,-3.5027,9.5481,-0.2897,-0.0432,-0.0168,0.3443,28.69
886,1931,-2.7509,9.3948,-0.1221,-0.1402,-0.0592,0.3525,28.68
896,1808,-2.1476,9.3134,0.012,-0.2393,-0.1487,0.3581,28.67
906,1903,-1.6089,9.2177,0.0814,-0.3126,-0.2414,0.3573,28.69
916,1948,-1.1468,9.0884,0.2227,-0.3403,-0.32,0.3483,28.69
926,2027,-0.7566,8.9399,0.2298,-0.3285,-0.3901,0.3123,28.67
936,2043,-0.5052,8.7293,0.2274,-0.2934,-0.4596,0.2609,28.68
946,2270,-0.498,8.5258,0.1628,-0.2294,-0.5223,0.2073,28.69
956,2230,-0.7159,8.4156,0.0239,-0.1663,-0.559,0.158,28.69
966,2160,-1.0391,8.4108,-0.079,-0.1354,-0.5582,0.1231,28.69
976,1936,-1.3838,8.5641,-0.067,-0.1362,-0.5364,0.0959,28.69
986,1895,-1.7262,8.7245,0.0455,-0.149,-0.5177,0.0879,28.7
996,1863,-1.9561,8.9519,0.1628,-0.1599,-0.5183,0.0826,28.7
1006,1850,-2.083,9.1722,0.1437,-0.1641,-0.5343,0.0714,28.69
1016,1825,-2.1261,9.3541,0.079,-0.1559,-0.5534,0.0525,28.7
1026,1812,-2.1045,9.505,-0.0431,-0.1308,-0.555,0.0272,28.69
1036,1972,-2.0111,9.56,-0.0551,-0.0943,-0.534,0.0003,28.7
1046,1843,-1.8627,9.5696,-0.0335,-0.0552,-0.5089,-0.0213,28.72
1056,1525,-1.7382,9.5074,0.0742,-0.0203,-0.4975,-0.0429,28.7
1066,1659,-1.7047,9.4332,0.1604,0.0109,-0.5039,-0.0634,28.71
1076,4095,-1.7789,9.3494,0.2634,0.0424,-0.5164,-0.0815,28.72
1086,4095,-1.9441,9.3087,0.2825,0.0802,-0.51,-0.1018,28.73
1096,4095,-2.0997,9.268,0.2346,0.1223,-0.4738,-0.1252,28.72
1106,1298,-2.2146,9.2057,0.2035,0.1633,-0.4191,-0.1482,28.72
1116,1757,-2.2386,9.153,0.1365,0.1956,-0.3645,-0.1679,28.71
1126,1961,-2.241,9.1099,0.0048,0.2161,-0.3192,-0.1812,28.72
1136,1861,-2.2386,9.1171,-0.2011,0.2238,-0.2825,-0.1868,28.72
1146,1818,-2.2194,9.153,-0.3184,0.2236,-0.2489,-0.1852,28.73
1156,1833,-2.2098,9.1506,-0.3519,0.227,-0.2137,-0.1807,28.73
1166,1899,-2.2697,9.1243,-0.3759,0.2318,-0.1761,-0.1703,28.7
1176,1965,-2.2841,9.007,-0.3831,0.234,-0.1346,-0.1556,28.73
1186,2013,-2.3272,8.7795,-0.4357,0.2308,-0.0933,-0.1415,28.71
1196,1991,-2.3415,8.5928,-0.5507,0.2204,-0.0592,-0.1311,28.72
1206,2032,-2.3224,8.5281,-0.6321,0.2014,-0.0301,-0.1266,28.71
1216,2028,-2.3511,8.5042,-0.7087,0.1881,0.0053,-0.1266,28.72
1220,2085,-2.3607,8.5018,-0.7302,0.1897,0.0264,-0.1298,28.73
1230,2090,-2.3822,8.5617,-0.8404,0.2142,0.1031,-0.1354,28.73
1240,2096,-2.3966,8.6742,-0.9242,0.2718,0.207,-0.137,28.75
1250,2126,-2.3224,8.8466,-0.9601,0.348,0.311,-0.1348,28.73
1260,2173,-2.1524,8.9878,-0.972,0.4269,0.3856,-0.1266,28.73
1270,2197,-1.9321,9.1195,-1.0175,0.4978,0.4213,-0.1092,28.74
1280,2145,-1.6975,9.177,-1.1181,0.5516,0.4271,-0.0869,28.73
1290,2190,-1.3264,9.1746,-1.1564,0.5796,0.417,-0.0629,28.74
1300,2132,-0.8859,9.1004,-1.0534,0.5801,0.3829,-0.0384,28.73
1310,2115,-0.3807,8.9543,-0.8523,0.5465,0.3091,-0.0136,28.74
1320,2115,0.091,8.8729,-0.6201,0.4834,0.1785,0.0123,28.74
1330,2063,0.4238,8.7963,-0.51,0.404,-0.0096,0.0314,28.74
1340,2062,0.4214,8.8083,-0.5626,0.3184,-0.2316,0.0456,28.75
1350,1855,0.0479,8.9471,-0.7614,0.2414,-0.4644,0.0549,28.77
1360,1883,-0.6728,9.1698,-1.0678,0.1753,-0.6704,0.0655,28.75
1370,1653,-1.6496,9.4188,-1.3647,0.125,-0.8042,0.0863,28.75
1380,1735,-2.636,9.6079,-1.64,0.0997,-0.8154,0.1183,28.77
1390,1814,-3.4237,9.7707,-1.743,0.1042,-0.7131,0.1535,28.76
1400,1724,-3.8738,9.8737,-1.7885,0.1186,-0.5542,0.1732,28.77
1410,1699,-4.0821,10.0149,-1.7071,0.1319,-0.376,0.1801,28.76
1420,1666,-3.9744,10.2663,-1.4557,0.1418,-0.2054,0.1889,28.77
1430,1749,-3.5458,10.6207,-0.929,0.1527,-0.0994,0.1804,28.75
1440,1767,-3.0263,11.1905,-0.4908,0.1522,-0.073,0.1692,28.76
1450,1744,-2.5115,11.7412,-0.0072,0.145,-0.1388,0.1657,28.77
1460,1755,-2.2194,12.2535,0.5483,0.1343,-0.2785,0.1833,28.79
1470,1733,-2.0423,12.4666,1.2186,0.0967,-0.4474,0.2427,28.79
1480,1755,-2.0159,12.1506,1.8627,0.0389,-0.5817,0.2832,28.78
1490,1751,-2.2027,11.2982,2.3583,-0.0504,-0.6491,0.2683,28.77
1500,1769,-2.7174,10.2711,2.5762,-0.1575,-0.6475,0.2038,28.77
1510,1781,-3.3591,9.4523,2.5067,-0.279,-0.6011,0.1665,28.78
1520,1751,-3.8834,8.7508,2.2817,-0.38,-0.5359,0.1671,28.77
1530,1847,-4.3646,8.1714,2.0183,-0.4072,-0.4708,0.1855,28.78
1540,1739,-4.6974,7.6758,1.6735,-0.3352,-0.3976,0.2105,28.77
1550,1686,-4.9297,7.2784,1.2713,-0.1825,-0.292,0.2286,28.77
1560,1776,-5.0254,7.0294,0.8308,0.0147,-0.1434,0.231,28.79
1570,1759,-4.9512,7.1706,0.4645,0.2217,0.044,0.2276,28.78
1580,1794,-4.5897,7.7021,0.1508,0.4362,0.2531,0.23,28.78
1590,1841,-4.0175,8.4922,-0.182,0.648,0.4407,0.2411,28.78
1600,1873,-3.2848,9.4763,-0.5435,0.8114,0.5532,0.2577,28.79
1610,2037,-2.4086,10.4387,-0.8882,0.8889,0.547,0.2694,28.8
1614,2061,-2.0327,10.7883,-0.9912,0.8913,0.5156,0.2702,28.81
1624,2126,-1.0415,11.4994,-1.1827,0.8239,0.3736,0.2372,28.8
1634,2135,-0.3184,11.9902,-1.1109,0.6726,0.1796,0.1692,28.8
1644,2106,0.2227,11.9758,-0.9673,0.461,-0.029,0.1164,28.78
1654,2022,0.4357,11.8824,-0.5219,0.2214,-0.2419,0.065,28.8
1664,1772,0.4597,11.5377,0.0215,0.0128,-0.4919,0.0466,28.79
1674,1731,0.2993,11.1953,0.6847,-0.1042,-0.7866,0.0258,28.81
1684,1643,-0.1628,10.8386,1.2091,-0.1037,-1.1247,0.0179,28.8
1694,1712,-0.8906,10.4196,1.1971,0.0088,-1.4237,0.0181,28.8
1704,1807,-1.7813,9.9695,0.7278,0.1884,-1.586,0.0237,28.79
1714,1712,-2.6983,9.4834,-0.0359,0.3826,-1.5711,0.0205,28.79
1724,1782,-3.5338,8.916,-0.7949,0.5593,-1.3997,0.0099,28.79
1734,1521,-4.0821,8.3127,-1.4413,0.6891,-1.1234,-0.0144,28.8
1744,1055,-4.3239,7.7931,-1.8771,0.7349,-0.818,-0.0432,28.81
1754,3125,-4.2018,7.4101,-2.0686,0.6787,-0.5945,-0.0565,28.8
1764,4095,-3.8499,7.2257,-1.9465,0.559,-0.5004,-0.0589,28.82
1774,4095,-3.4668,7.2856,-1.7166,0.425,-0.4999,-0.0637,28.82
1784,1562,-3.0909,7.5058,-1.4772,0.3254,-0.5265,-0.0661,28.82
1794,1374,-2.7054,7.8769,-1.3001,0.2619,-0.5484,-0.0645,28.81
1804,2003,-2.2625,8.2073,-1.1827,0.2569,-0.5438,-0.0626,28.81
1814,1615,-1.8076,8.4084,-1.1277,0.295,-0.5268,-0.0674,28.8
1824,1673,-1.3958,8.43,-1.1923,0.3501,-0.51,-0.0839,28.82
1834,1823,-1.0534,8.3318,-1.221,0.3989,-0.5119,-0.0983,28.82
1844,1588,-0.7709,8.0732,-1.2522,0.4237,-0.5404,-0.1095,28.82
1854,1703,-0.6249,7.8099,-1.2115,0.4218,-0.6014,-0.1026,28.82
1864,1674,-0.6273,7.5058,-1.1875,0.3965,-0.6947,-0.0877,28.82
1874,1777,-0.8236,7.2161,-1.2402,0.3363,-0.805,-0.064,28.82
1884,1786,-1.245,7.0581,-1.2713,0.2388,-0.9118,-0.0282,28.82
1894,1890,-1.8124,7.015,-1.1995,0.1138,-0.9982,0.0139,28.83
1904,2078,-2.3727,7.2377,-1.2306,-0.0075,-1.0352,0.0501,28.82
1914,1870,-2.8347,7.5633,-1.3791,-0.0754,-0.9872,0.0741,28.84
1924,1834,-3.0813,8.0038,-1.4246,-0.0605,-0.8735,0.0871,28.82
1934,1887,-3.043,8.3629,-1.3336,0.029,-0.748,0.0965,28.83
1944,1951,-2.7916,8.5617,-1.233,0.1535,-0.6558,0.1063,28.84
1954,1991,-2.4756,8.5736,-1.3096,0.2609,-0.6035,0.118,28.83
1964,2025,-2.2314,8.4803,-1.4054,0.3131,-0.5793,0.1308,28.83
1974,1997,-2.0853,8.3653,-1.5778,0.284,-0.5836,0.1399,28.84
1984,1998,-2.0399,8.3151,-1.7597,0.19,-0.5836,0.1364,28.82
1994,2129,-2.1213,8.406,-1.834,0.0781,-0.562,0.1204,28.83
2004,1897,-2.2529,8.7293,-1.9321,0.0059,-0.5265,0.0994,28.83
2008,1904,-2.3056,8.8873,-1.9848,-0.0019,-0.5087,0.0898,28.82
2018,1872,-2.411,9.3613,-1.9968,0.0413,-0.4631,0.0663,28.81
2028,1840,-2.4062,9.833,-1.9561,0.1583,-0.4117,0.0453,28.82
2038,1817,-2.2745,10.2448,-1.9465,0.295,-0.3347,0.0203,28.82
2048,1747,-1.9369,10.5034,-1.9872,0.3994,-0.2489,-0.0008,28.84
2058,1697,-1.4796,10.5943,-2.162,0.4485,-0.1945,-0.0258,28.84
2068,1682,-0.9122,10.5465,-2.2625,0.4242,-0.194,-0.0402,28.82
2078,1740,-0.3376,10.4435,-2.2697,0.3376,-0.2659,-0.0309,28.83
2088,1665,0.1484,10.3166,-2.1428,0.2254,-0.4141,0.0032,28.82
2098,1661,0.5411,10.2568,-1.901,0.1266,-0.6254,0.0514,28.83
2108,1715,0.7614,10.422,-1.549,0.0783,-0.8649,0.0989,28.83
2118,1759,0.7709,10.8026,-0.8619,0.0954,-1.1034,0.1287,28.83
2128,1695,0.34,11.2719,-0.1077,0.1356,-1.3403,0.1314,28.85
2138,1686,-0.5363,11.6047,0.2274,0.1436,-1.522,0.097,28.83
2148,1665,-1.7885,11.8393,0.2394,0.1031,-1.5929,0.0213,28.83
2158,1664,-3.0023,11.8992,0.3208,0.0474,-1.5793,-0.0914,28.85
2168,1680,-4.1444,11.9973,0.4046,0.0573,-1.5164,-0.2126,28.83
2178,1745,-5.1044,12.0764,0.4357,0.1855,-1.3931,-0.3011,28.84
2188,1733,-5.7652,12.129,0.2322,0.4325,-1.1964,-0.3293,28.83
2198,1697,-5.9424,11.9542,-0.249,0.7341,-0.9387,-0.2947,28.83
2208,1713,-5.4971,11.5329,-0.7183,0.9944,-0.6856,-0.2126,28.84
2218,1733,-4.4317,10.7548,-1.0798,1.1231,-0.5265,-0.1021,28.84
2228,1746,-2.9497,9.8569,-1.233,1.068,-0.5462,-0.0043,28.83
2238,1787,-1.3982,9.0597,-1.1875,0.8412,-0.7671,0.0565,28.83
2248,1771,-0.1125,8.4994,-1.0008,0.5327,-1.1287,0.0679,28.83
2258,1743,0.6345,8.193,-0.6847,0.2302,-1.5175,0.045,28.83
2268,1776,0.9194,7.9799,-0.1891,-0.0104,-1.8394,-0.0048,28.85
2278,1872,0.9002,7.8171,0.4453,-0.1569,-2.043,-0.0706,28.87
2288,1885,0.6153,7.6471,1.154,-0.1916,-2.1192,-0.1367,28.85
2298,2019,-0.0646,7.6351,1.6783,-0.1322,-2.112,-0.1743,28.83
2308,1975,-1.0606,7.7237,1.8483,-0.0288,-2.0435,-0.1495,28.86
2318,2007,-2.3128,7.9535,1.7454,0.0762,-1.9137,-0.0767,28.85
2328,1901,-3.3974,8.3055,1.6089,0.145,-1.7379,0.0312,28.85
2338,1712,-4.2377,8.7628,1.5227,0.1649,-1.562,0.1324,28.86
2348,1633,-4.81,9.2751,1.3743,0.1362,-1.417,0.198,28.83
2358,1657,-5.2696,9.8689,0.9026,0.0743,-1.2846,0.2054,28.84
2368,1626,-5.4061,10.386,0.2179,0.0091,-1.1394,0.178,28.85
2378,1658,-5.0637,10.9104,-0.5171,-0.0216,-0.9875,0.1564,28.85
2388,1665,-4.2329,11.1211,-0.8787,0.0152,-0.8735,0.1567,28.85
2398,1686,-3.1316,10.8984,-0.9553,0.0919,-0.834,0.1665,28.85
2402,1648,-2.6695,10.6949,-0.9146,0.1234,-0.8415,0.1673,28.85
2412,1157,-1.6975,10.058,-0.7685,0.1796,-0.907,0.1615,28.84
2422,1771,-0.9122,9.3637,-0.6632,0.1761,-1.0123,0.149,28.85
2432,4095,-0.3136,8.6407,-0.5363,0.0943,-1.1309,0.1394,28.87
2442,4095,0.0622,8.0589,-0.2753,-0.0472,-1.2524,0.129,28.87
2452,2534,0.2179,7.6495,0.0311,-0.2102,-1.376,0.118,28.87
2462,1060,0.1269,7.3957,0.2801,-0.3509,-1.4954,0.1079,28.87
2472,1723,-0.2059,7.331,0.4118,-0.4218,-1.5876,0.1045,28.86
2482,1681,-0.6584,7.3502,0.4405,-0.4199,-1.6172,0.1175,28.86
2492,1701,-1.1205,7.2903,0.3855,-0.3661,-1.578,0.1156,28.86
2502,1649,-1.6352,7.3526,0.3352,-0.2835,-1.4738,0.1106,28.85
2512,1680,-2.0949,7.4843,0.316,-0.19,-1.3182,0.1111,28.86
2522,1756,-2.4014,7.6064,0.3424,-0.0989,-1.1439,0.1098,28.87
2532,1725,-2.6576,7.7069,0.4357,-0.0184,-0.9766,0.1023,28.86
2542,1812,-2.8084,7.8697,0.5243,0.0445,-0.8388,0.0927,28.86
2552,1801,-2.9018,8.0709,0.4956,0.0802,-0.7245,0.0818,28.85
2562,1790,-2.8898,8.3342,0.3855,0.0935,-0.6099,0.0714,28.87
2572,1853,-2.7342,8.5641,0.1915,0.0933,-0.4871,0.0482,28.87
2582,1942,-2.3511,8.7652,-0.1173,0.0765,-0.3528,0.0229,28.86
2592,1852,-1.6903,8.8777,-0.3376,0.0317,-0.2345,0.0085,28.86
2602,2014,-1.0056,8.8585,-0.4262,-0.0336,-0.1863,-0.0085,28.88
2612,1965,-0.4812,8.849,-0.4357,-0.1202,-0.2156,0.0051,28.89
2622,1997,-0.237,8.7245,-0.4836,-0.194,-0.2859,0.016,28.86
2632,2204,-0.3112,8.7269,-0.5076,-0.2417,-0.3331,0.0192,28.87
2642,2003,-0.6321,8.8322,-0.3472,-0.2401,-0.3104,0.032,28.86
2652,2063,-0.9026,9.0405,-0.0287,-0.1687,-0.2113,0.0482,28.85
2662,2136,-1.0918,9.3302,0.1652,-0.0296,-0.085,0.053,28.87
2672,2054,-1.0846,9.6103,0.0599,0.1372,-0.0173,0.06,28.88
2682,1975,-0.9625,9.6319,-0.2059,0.2686,-0.0378,0.052,28.89
2692,1901,-0.9912,9.8785,-0.3926,0.3309,-0.1276,0.1069,28.89
2702,1829,-0.9361,10.0054,-0.431,0.3238,-0.2241,0.2182,28.88
2712,1795,-1.0295,10.1538,-0.5962,0.267,-0.2918,0.3352,28.88
2722,1757,-0.9768,10.2352,-0.9266,0.1535,-0.3083,0.4439,28.87
2732,1681,-0.9697,10.6207,-0.929,-0.024,-0.2585,0.5127,28.88
2742,1671,-1.0008,11.0828,-0.7087,-0.2292,-0.1993,0.6379,28.88
2752,1717,-0.9098,11.0947,-0.1389,-0.3637,-0.1863,0.7506,28.89
2762,1712,-0.905,11.1929,0.4429,-0.3904,-0.3054,0.6768,28.88
2772,1726,-1.4557,11.9926,1.0271,-0.2926,-0.413,0.538,28.88
2782,1730,-2.15,12.9909,1.3144,-0.0951,-0.3933,0.5055,28.88
2792,1678,-2.5163,13.5153,1.1181,0.0954,-0.2771,0.433,28.89
2796,1682,-2.6552,13.5991,0.8715,0.1553,-0.2233,0.3589,28.89
2806,1697,-3.043,13.635,0.1748,0.2745,-0.0762,0.1268,28.89
2816,1683,-3.2681,13.3549,-0.3424,0.3725,0.0941,-0.0594,28.89
2826,1795,-2.8778,12.7324,-0.565,0.4535,0.3043,-0.1399,28.87
2836,1750,-1.8747,11.7436,-0.4932,0.4679,0.4903,-0.145,28.89
2846,1733,-0.8571,10.829,-0.1293,0.372,0.5305,-0.0962,28.89
2856,1763,-0.1221,10.094,0.431,0.1697,0.3808,0.0096,28.88
2866,1743,0.2634,9.5936,1.166,-0.0991,0.0842,0.1479,28.89
2876,1766,0.3017,9.1459,1.9992,-0.3722,-0.2601,0.3019,28.89
2886,1767,0.0072,8.5952,2.6887,-0.6006,-0.5646,0.4199,28.89
2896,1776,-0.6656,7.9703,2.976,-0.7661,-0.7818,0.4533,28.9
2906,1808,-1.5897,7.3622,2.8299,-0.8559,-0.8833,0.4301,28.89
2916,1862,-2.557,6.7924,2.3822,-0.8743,-0.8521,0.3728,28.89
2926,1817,-3.5051,6.3183,1.9968,-0.8127,-0.7344,0.2878,28.87
2936,1856,-4.3718,6.1579,1.7358,-0.6558,-0.5796,0.1929,28.89
2946,1956,-5.1643,6.5984,1.2785,-0.4229,-0.4191,0.1242,28.9
2956,2082,-5.5378,7.422,0.6991,-0.1484,-0.2129,0.0994,28.89
2966,2096,-5.454,8.4252,0.1125,0.1495,0.0221,0.0839,28.89
2976,2091,-4.774,9.4834,-0.431,0.4314,0.2803,0.0336,28.88
2986,2161,-3.4668,10.4196,-0.7302,0.6211,0.5372,-0.0485,28.9
2996,2003,-1.8411,10.9367,-0.589,0.6656,0.7232,-0.1172,28.89
3006,1847,-0.2777,10.963,-0.1532,0.554,0.7552,-0.1753,28.88
3016,1821,0.9194,10.6997,0.3519,0.2896,0.6059,-0.2001,28.89
3026,1819,1.64,10.3549,0.8811,-0.0805,0.2886,-0.1801,28.89
3036,1776,1.8603,10.0245,1.3503,-0.4495,-0.1348,-0.1226,28.9
3046,1813,1.5802,9.8378,1.6975,-0.7133,-0.5862,-0.0632,28.89
3056,1815,0.838,9.8881,1.7717,-0.8322,-0.967,0.0045,28.91
3066,1850,-0.1676,10.0078,1.6735,-0.8034,-1.1935,0.0597,28.9
3076,1731,-1.1779,10.1155,1.4293,-0.6379,-1.2398,0.0938,28.89
3086,1266,-2.0279,10.1059,1.0223,-0.3661,-1.1439,0.0917,28.9
3096,3071,-2.6911,10.0006,0.5674,-0.0522,-0.9848,0.0589,28.89
3106,4095,-2.9904,9.5313,-0.0168,0.2214,-0.8311,0.0226,28.91
3116,4095,-2.9999,8.9376,-0.4812,0.3986,-0.7155,-0.0325,28.91
3126,2135,-2.7438,8.2408,-0.838,0.4538,-0.6395,-0.0746,28.92
3136,1609,-2.2697,7.5992,-1.008,0.4069,-0.5891,-0.1098,28.92
3146,1835,-1.7861,7.2472,-1.0319,0.2944,-0.5534,-0.134,28.91
3156,1779,-1.391,7.1802,-0.917,0.1615,-0.5121,-0.1495,28.91
3166,1968,-1.1013,7.3334,-0.6895,0.061,-0.4591,-0.1607,28.9
3176,1795,-0.929,7.6614,-0.4717,0.0301,-0.4109,-0.1665,28.89
3186,1889,-0.8332,8.0014,-0.3232,0.0757,-0.3752,-0.1716,28.9
3190,1869,-0.8332,8.1259,-0.3017,0.1122,-0.3661,-0.1748,28.9
3200,1786,-0.8739,8.3222,-0.3065,0.2233,-0.3555,-0.1804,28.91
3210,1909,-0.929,8.2887,-0.3711,0.3349,-0.3632,-0.1724,28.9
3220,1908,-1.0367,8.09,-0.4693,0.4122,-0.3792,-0.1684,28.91
3230,1973,-1.1468,7.8626,-0.5986,0.4285,-0.3986,-0.1548,28.9
3240,1969,-1.2594,7.6447,-0.6847,0.3957,-0.4245,-0.1458,28.91
3250,1982,-1.3575,7.5322,-0.7422,0.3443,-0.4522,-0.1306,28.91
3260,2129,-1.4748,7.5369,-0.7302,0.2939,-0.481,-0.1122,28.91
3270,2064,-1.6209,7.7141,-0.6632,0.2513,-0.5212,-0.077,28.91
3280,2096,-1.5897,7.7955,-0.7733,0.2209,-0.554,-0.0352,28.89
3290,2107,-1.5921,8.0517,-0.9768,0.2204,-0.5708,-0.0123,28.91
3300,2192,-1.3838,8.3103,-1.3192,0.2526,-0.5636,0.0171,28.92
3310,2213,-1.1181,8.5425,-1.4868,0.3048,-0.5273,0.0346,28.94
3320,2172,-0.7997,8.7628,-1.5419,0.3587,-0.4975,0.0456,28.93
3330,2129,-0.5866,9.0237,-1.5083,0.4018,-0.4826,0.0368,28.92
3340,2107,-0.5578,9.2727,-1.494,0.4349,-0.4767,0.0322,28.93
3350,2348,-0.6608,9.4332,-1.3503,0.4517,-0.4762,0.0261,28.92
3360,1988,-0.9194,9.505,-1.2163,0.4415,-0.4775,-0.0019,28.92
3370,1838,-1.2881,9.4954,-1.0942,0.3861,-0.4615,-0.0437,28.94
3380,1948,-1.6017,9.5529,-0.9673,0.267,-0.4151,-0.0794,28.95
3390,1872,-1.8172,9.6822,-0.893,0.0853,-0.3448,-0.1023,28.94
3400,1722,-1.9393,9.9958,-0.8811,-0.1356,-0.2593,-0.1314,28.94
3410,1701,-2.0566,10.6805,-0.7087,-0.3323,-0.1849,-0.1327,28.94
3420,1759,-2.059,11.3078,-0.4214,-0.4143,-0.1402,-0.0946,28.93
3430,1787,-1.8651,11.8345,-0.1628,-0.3291,-0.0986,-0.0368,28.92
3440,1791,-1.5036,12.0787,-0.1269,-0.0485,-0.053,-0.0221,28.93
3450,1760,-1.1301,12.0955,-0.4118,0.3403,-0.0282,-0.0285,28.94
3460,1814,-0.6488,11.8345,-1.0439,0.7192,-0.0549,-0.0272,28.93
3470,1761,0.0048,11.4754,-1.889,0.9976,-0.1284,-0.0218,28.92
3480,1858,0.5459,10.9583,-1.901,1.0736,-0.2254,-0.004,28.92
3490,1904,0.7709,10.5129,-1.2617,0.8609,-0.3555,0.0091,28.92
3500,1872,0.5818,10.58,-0.8236,0.3549,-0.4954,-0.016,28.93
3510,1831,-0.1796,11.2432,-0.2921,-0.3794,-0.7107,-0.0549,28.93
3520,1825,-1.2522,12.0309,0.3855,-1.2017,-1.0677,-0.0869,28.93
3530,1807,-2.7869,12.7108,1.4916,-1.9249,-1.4594,-0.1274,28.92
3540,1842,-3.972,12.8305,3.2801,-2.1949,-1.7483,-0.1815,28.93
3550,1806,-5.2098,13.1298,4.865,-1.8487,-1.7467,-0.3312,28.94
3560,1818,-6.438,13.4578,5.8347,-0.9934,-1.4296,-0.5412,28.94
3570,1793,-8.1331,13.6805,6.347,0.1807,-0.8958,-0.6859,28.94
3580,1886,-8.5305,12.5193,6.0861,1.4035,-0.2992,-0.5982,28.93
3584,1882,-8.0685,11.6574,5.4971,1.8386,-0.0392,-0.5777,28.92
3594,1840,-5.7988,9.0549,2.9233,2.5783,0.5734,-0.603,28.92
3604,1865,-3.0574,6.2225,0.4214,2.699,0.8484,-0.6539,28.93
3614,1879,-0.3232,3.7254,-1.5012,2.2092,0.6193,-0.68,28.93
3624,1969,1.9441,2.569,-1.8771,1.3238,0.0544,-0.6139,28.93
3634,2064,3.1125,3.2322,-1.3743,0.2907,-0.6113,-0.4535,28.92
3644,2098,2.9233,5.0973,-0.5339,-0.6347,-1.2223,-0.1964,28.93
3654,2218,1.585,7.446,0.1748,-1.2127,-1.6627,0.0165,28.95
3664,2209,-0.4262,9.7827,0.8236,-1.3654,-1.817,0.1615,28.94
3674,2038,-2.6145,11.6071,1.6927,-1.1266,-1.7003,0.2388,28.93
3684,1733,-4.5849,12.6941,2.3415,-0.6171,-1.384,0.2214,28.94
3694,1744,-6.1268,13.0245,2.5091,-0.012,-0.9673,0.1186,28.93
3704,1819,-7.0006,12.3206,2.1093,0.5071,-0.5609,-0.0136,28.94
3714,1770,-7.0749,10.8625,1.1085,0.8447,-0.21,-0.1223,28.93
3724,1823,-6.5673,9.1842,-0.0263,0.923,0.0168,-0.1617,28.94
3734,1853,-5.6814,7.6614,-0.9074,0.7488,0.0821,-0.1236,28.95
3744,1777,-4.6807,6.5888,-1.3192,0.4082,0.0687,-0.025,28.95
3754,1776,-3.5721,6.0621,-1.2019,0.0266,0.0919,0.1063,28.94
3764,1289,-2.4205,6.0142,-0.5866,-0.2814,0.1897,0.23,28.94
3774,2064,-1.3192,6.4308,0.1317,-0.5071,0.2926,0.2896,28.94
3784,4095,-0.3472,7.0581,0.9553,-0.5809,0.3235,0.32,28.93
3794,4095,0.4094,7.6423,1.4246,-0.4983,0.2609,0.3008,28.93
3804,3260,0.8021,8.0589,1.5467,-0.3142,0.1314,0.2308,28.96
3814,1370,0.7709,8.181,1.2857,-0.0965,-0.0187,0.1386,28.94
3824,1717,0.3807,8.0302,0.6464,0.0789,-0.138,0.0584,28.94
3834,1850,-0.1844,7.7692,-0.1125,0.1559,-0.199,0.0115,28.96
3844,1862,-0.7566,7.5776,-0.7709,0.1191,-0.1974,-0.0027,28.96
3854,1754,-1.2594,7.6303,-1.1061,0.0016,-0.142,0.0109,28.93
3864,1916,-1.5802,7.8554,-0.996,-0.1402,-0.0613,0.0418,28.94
3874,1855,-1.7502,8.1475,-0.6488,-0.2369,0.0139,0.0661,28.94
3884,1924,-1.81,8.3725,-0.2179,-0.2545,0.0749,0.0762,28.95
3894,1914,-1.7909,8.5162,0.0335,-0.2108,0.1271,0.0663,28.96
3904,1889,-1.7023,8.5497,0.1389,-0.1452,0.1799,0.0394,28.96
3914,2015,-1.5538,8.509,0.0862,-0.0855,0.2332,0.0048,28.97
3924,2110,-1.4054,8.418,-0.1556,-0.0477,0.2939,-0.0309,28.98
3934,2079,-1.2594,8.2983,-0.486,-0.0434,0.3592,-0.0616,28.95
3944,2113,-1.1827,8.2193,-0.814,-0.0711,0.4218,-0.0759,28.94
3954,2159,-1.2139,8.2097,-0.9984,-0.1116,0.474,-0.0781,28.95
3964,2230,-1.2546,8.3438,-1.0415,-0.145,0.5249,-0.0671,28.96
3974,2069,-1.2546,8.6431,-1.0702,-0.133,0.5804,-0.0437,28.97
3978,2124,-1.245,8.8178,-1.0846,-0.1063,0.6043,-0.0314,28.97
3988,2227,-1.1612,9.2871,-1.2402,0.0229,0.6622,0.0013,28.95
3998,2223,-1.0582,9.7276,-1.415,0.2238,0.7045,0.0357,28.95
4008,2277,-0.9673,9.979,-1.5155,0.4482,0.7077,0.0629,28.96
4018,2203,-0.9457,10.0389,-1.5227,0.6222,0.6603,0.0842,28.96
4028,2155,-0.917,9.7612,-1.549,0.6947,0.5844,0.1066,28.96
4038,2180,-0.9481,9.3111,-1.6305,0.6312,0.4903,0.1156,28.97
4048,2081,-0.9481,8.9471,-1.6424,0.4205,0.377,0.1148,28.97
4058,1966,-0.9481,8.9016,-1.5682,0.1098,0.2481,0.1156,28.98
4068,1932,-1.0032,9.1459,-1.391,-0.2164,0.0997,0.1292,28.98
4078,1849,-1.3001,9.7037,-1.008,-0.4879,-0.0759,0.1567,28.97
4088,1872,-1.7166,10.3932,-0.5746,-0.6326,-0.251,0.2073,28.95
4098,1842,-2.2553,11.1235,-0.2634,-0.5883,-0.3219,0.2566,28.97
4108,1823,-2.8706,11.6717,0.079,-0.3965,-0.1966,0.2769,28.97
4118,1847,-3.5051,12.3062,0.5986,-0.1466,0.0384,0.3208,28.96
4128,1877,-3.735,12.979,1.0175,0.0967,0.295,0.3126,28.97
4138,1840,-3.7661,13.5177,1.0319,0.2649,0.5129,0.2161,28.99
4148,1771,-3.9768,13.6278,0.51,0.3579,0.696,0.0743,28.96
4158,1895,-4.1468,13.2591,0.0072,0.4303,0.8588,-0.0296,28.96
4168,1872,-3.7733,12.3421,-0.1484,0.457,0.9992,-0.0645,28.96
4178,1906,-2.9975,11.0373,0.0886,0.3829,1.0637,-0.0416,28.96
4188,1947,-2.2649,9.6558,0.3998,0.1751,0.9606,0.0184,28.96
4198,1910,-1.9154,8.4874,0.7614,-0.1745,0.6832,0.1282,28.97
4208,1804,-1.9704,7.6447,1.245,-0.6051,0.308,0.2859,28.99
4218,1861,-2.3631,7.0797,1.8268,-1.0048,-0.0264,0.4679,28.97
4228,1936,-3.0981,6.8139,2.3272,-1.2817,-0.2156,0.6352,28.96
4238,1887,-4.0845,6.9839,2.6408,-1.3656,-0.1998,0.744,28.98
4248,1865,-5.1068,7.8219,2.636,-1.2329,0.0179,0.757,28.96
4258,1853,-5.9185,9.1698,2.1284,-0.9411,0.3573,0.667,28.98
4268,1889,-6.4021,10.7093,1.3408,-0.465,0.7381,0.4788,28.98
4278,1995,-6.3925,12.0093,0.3926,0.1436,1.1151,0.2366,28.98
4288,1863,-5.7293,12.7252,-0.34,0.6947,1.4847,-0.0085,28.97
4298,2023,-4.4317,12.6342,-0.6584,1.0064,1.8109,-0.1964,28.99
4308,1871,-2.9161,12.0069,-0.7542,1.0174,2.032,-0.296,28.98
4318,1845,-1.494,11.1259,-0.7087,0.7378,2.0619,-0.3238,28.98
4328,2127,-0.3543,10.3358,-0.5626,0.2545,1.869,-0.2851,28.99
4338,2035,0.5555,9.7181,-0.237,-0.2798,1.4893,-0.2105,29
4348,2112,1.1588,9.3757,0.1939,-0.7152,1.0088,-0.125,28.98
4358,2210,1.47,9.2177,0.7302,-0.975,0.5049,-0.0432,28.99
4368,2192,1.4676,9.1459,1.1684,-1.0291,0.0418,0.0091,28.97
4372,2139,1.3431,9.1243,1.2498,-0.9955,-0.1175,0.0226,28.97
4382,1955,0.7614,9.0836,1.0511,-0.8052,-0.4205,0.0528,28.97
4392,1926,-0.0503,8.9016,0.4501,-0.5193,-0.5457,0.0698,28.98
4402,1805,-0.7733,8.5234,-0.3879,-0.2102,-0.498,0.0621,28.98
4412,1717,-1.3048,7.9679,-1.1803,0.0402,-0.3651,0.0189,28.98
4422,1792,-1.7214,7.276,-1.8938,0.1761,-0.2523,-0.0461,29
4432,1746,-2.0566,6.6319,-2.308,0.1847,-0.2086,-0.1212,29
4442,1781,-2.399,6.1818,-2.4157,0.1007,-0.222,-0.1791,28.98
4452,1774,-2.7222,6.0621,-2.2697,-0.0203,-0.2326,-0.2137,28.98
4462,1803,-2.9688,6.2991,-1.9992,-0.109,-0.2062,-0.235,29.01
4472,1171,-3.0694,6.6918,-1.6831,-0.126,-0.1284,-0.2348,29.01
4482,2522,-2.9281,7.1802,-1.4413,-0.069,-0.0173,-0.2236,28.99
4492,4095,-2.6049,7.5776,-1.2546,0.0349,0.0906,-0.2073,28.98
4502,4095,-2.2027,7.7548,-1.0582,0.1354,0.1591,-0.1831,28.99
4512,2486,-1.8052,7.7309,-0.9984,0.1871,0.1737,-0.1468,28.99
4522,1493,-1.4988,7.6231,-1.1181,0.1535,0.1348,-0.1039,29
4532,1737,-1.257,7.6016,-1.3862,0.0394,0.0576,-0.0557,29.02
4542,1712,-1.1205,7.671,-1.664,-0.1103,-0.0453,-0.0107,29.01
4552,1809,-1.1325,7.8673,-1.7502,-0.2297,-0.1727,0.0213,29
4562,1777,-1.2905,8.1451,-1.7214,-0.2643,-0.3043,0.0378,29.01
4572,1803,-1.5778,8.3462,-1.6568,-0.2142,-0.3946,0.045,29.01
4582,1776,-1.81,8.3893,-1.6089,-0.1053,-0.4173,0.0506,28.99
4592,1791,-1.8986,8.3294,-1.6041,0.0266,-0.3864,0.0685,29.01
4602,1808,-1.8364,8.2744,-1.6975,0.1356,-0.3301,0.0927,29
4612,1857,-1.7406,8.3031,-1.8675,0.1945,-0.2782,0.1175,29.01
4622,1968,-1.7142,8.4922,-1.9609,0.2094,-0.2377,0.1466,28.99
4632,1933,-1.8196,8.8131,-2.0518,0.1985,-0.1985,0.174,28.98
4642,1936,-1.9632,9.1674,-1.968,0.1804,-0.1524,0.1982,28.98
4652,2032,-2.0758,9.4691,-1.743,0.1548,-0.1071,0.2086,29
4662,2011,-2.0925,9.7205,-1.3264,0.1023,-0.0767,0.1969,28.99
4672,2114,-2.0614,9.9168,-0.9409,0.0152,-0.0669,0.1537,29
4682,1988,-2.1404,10.3022,-0.7494,-0.1098,-0.0573,0.0767,28.98
4692,2032,-2.4445,10.963,-0.5986,-0.2169,-0.0226,0.0059,29
4702,2100,-2.8347,11.5855,-0.5818,-0.2193,0.0512,-0.0258,29.02
4712,2032,-3.0167,11.971,-0.7159,-0.0999,0.1663,-0.0242,29.02
4722,2011,-2.9066,11.9686,-0.9984,0.1132,0.2747,-0.0021,29.01
4732,2009,-2.5307,11.7483,-1.5371,0.3571,0.3264,0.0242,28.99
4742,2038,-1.8579,11.576,-2.1045,0.5705,0.3019,0.0517,29
4752,1855,-1.2067,11.4898,-1.9992,0.6749,0.206,0.0893,29
4762,1872,-0.9816,11.5664,-1.4078,0.5612,0.0653,0.1255,29.01
4766,1941,-0.9936,11.6861,-1.2019,0.4477,0.0171,0.1303,29.01
4776,1985,-1.2306,12.3134,-0.7733,0.0123,-0.0709,0.1143,29.01
4786,1805,-1.8387,13.1897,-0.0048,-0.5814,-0.2244,0.0794,29
4796,1792,-2.6791,13.7571,1.1923,-1.162,-0.4786,0.0322,29.01
4806,1755,-3.8307,13.8265,2.4636,-1.4826,-0.7213,-0.0168,29.01
4816,1711,-4.8722,13.5919,3.3112,-1.351,-0.7661,-0.0978,28.99
4826,1712,-5.8466,13.5751,3.5602,-0.7562,-0.5438,-0.2076,29
4836,1683,-6.4212,13.2806,3.3279,0.1276,-0.1431,-0.3,29
4846,1659,-6.2704,12.0045,3.0023,1.0829,0.2811,-0.3371,28.99
4856,1703,-5.2289,9.6031,2.1524,1.8285,0.579,-0.3155,29.01
4866,1744,-3.5338,6.8307,0.4549,2.0856,0.6837,-0.2846,29.02
4876,1725,-1.6305,4.3311,-1.1708,1.7144,0.514,-0.2467,29.02
4886,1742,0.1796,3.0933,-1.5874,0.9161,0.1474,-0.2134,29.01
4896,1773,1.4293,3.4093,-0.984,-0.0112,-0.279,-0.1767,28.99
4906,1727,1.8866,4.9009,-0.0383,-0.8092,-0.6939,-0.1164,29
4916,1866,1.5538,6.936,0.7853,-1.3286,-1.0698,-0.037,29
4926,1744,0.5626,9.0357,1.5921,-1.5092,-1.3483,0.0464,29.01
4936,1712,-0.9601,10.817,2.5235,-1.3571,-1.4639,0.1394,28.99
4946,1729,-2.66,11.9088,3.3423,-0.9268,-1.3797,0.215,29
4956,1760,-4.2234,12.3158,3.6703,-0.3672,-1.1053,0.2156,29
4966,1778,-5.612,12.1099,3.2441,0.1514,-0.7019,0.1439,29
4976,1742,-6.5074,11.2934,2.2625,0.5279,-0.2976,0.0504,29.01
4986,1847,-6.5841,10.0293,0.6297,0.7083,0.0091,-0.0016,29.01
4996,1928,-6.0525,8.5281,-1.1468,0.6209,0.1553,-0.0072,29.01
5006,1946,-5.1715,7.2209,-2.0949,0.3102,0.1628,0.0234,28.99
5016,1763,-4.2042,6.4931,-2.0877,-0.0751,0.134,0.0866,28.99
5026,1855,-3.2896,6.4189,-1.5586,-0.4072,0.1793,0.162,29
5036,2047,-2.3559,6.8091,-0.7326,-0.6086,0.3235,0.2198,29.01
5046,2132,-1.4557,7.525,0.1173,-0.6419,0.465,0.2454,29
5056,2016,-0.7302,8.1666,0.7566,-0.5537,0.5017,0.2318,29.03
5066,1865,-0.0934,8.667,1.075,-0.3619,0.4628,0.2014,29
5076,1750,0.3112,8.6957,0.996,-0.1508,0.3584,0.1577,29.01
5086,1773,0.3663,8.351,0.5555,-0.008,0.2337,0.1111,29
5096,1810,0.1987,7.8673,-0.0958,0.012,0.1287,0.0759,29
5106,1739,-0.0383,7.5058,-0.5938,-0.1013,0.0554,0.0522,29
5116,1855,-0.3735,7.4101,-0.8045,-0.3067,0.0099,0.0445,29.02
5126,1841,-0.7757,7.5561,-0.6369,-0.5265,-0.0234,0.0557,29.01
5136,1805,-1.1516,7.92,-0.3663,-0.6667,-0.0349,0.077,29.02
5146,1451,-1.4581,8.248,-0.1173,-0.6819,0.004,0.0895,29.01
5156,1365,-1.6975,8.4827,0.0359,-0.5836,0.109,0.0911,29.01
5160,2186,-1.7502,8.5377,0.0527,-0.5199,0.1663,0.0887,29.02
5170,4095,-1.8316,8.5186,0,-0.3317,0.3317,0.0775,28.99
5180,4095,-1.7717,8.3582,-0.1413,-0.1428,0.4991,0.0674,29
5190,2702,-1.5969,8.1044,-0.3184,-0.0061,0.6281,0.0541,28.99
5200,1246,-1.3455,7.8721,-0.5602,0.044,0.6896,0.0416,29.01
5210,1840,-1.0798,7.7333,-0.7518,0.0064,0.6909,0.0245,29.01
5220,1791,-0.9146,7.8123,-0.9409,-0.089,0.6694,0.008,29
5230,1782,-0.8619,7.9966,-1.1325,-0.178,0.6592,-0.0008,29.01
5240,1888,-0.8499,8.3103,-1.2115,-0.1993,0.6931,-0.0067,29
5250,1911,-0.7997,8.691,-1.1205,-0.1295,0.773,-0.0027,29.01
5260,1867,-0.7135,9.0285,-1.0319,0.0213,0.8777,0.0115,29.02
5270,2114,-0.577,9.335,-1.087,0.2004,0.9766,0.0394,29.01
5280,1911,-0.3543,9.6223,-1.3096,0.3531,1.024,0.0767,29.01
5290,2018,-0.1437,9.8019,-1.5299,0.4386,0.9832,0.1114,29.02
5300,2069,0,9.9455,-1.6017,0.4527,0.8585,0.1391,29.03
5310,2047,0.0431,9.9814,-1.4126,0.4138,0.696,0.1647,29.04
5320,2084,0.0886,9.9719,-1.1851,0.3304,0.5454,0.1809,29.02
5330,2106,0.0479,10.0293,-0.917,0.1831,0.409,0.1799,29.03
5340,2179,-0.0575,10.1466,-0.5794,-0.0037,0.2595,0.1708,29.03
5350,2212,-0.3663,10.2855,-0.3208,-0.1767,0.0789,0.1679,29.01
5360,2141,-1.0534,10.3837,-0.1963,-0.283,-0.0946,0.1863,29.02
5370,2129,-1.9058,10.4435,-0.2777,-0.2966,-0.186,0.2244,29
5380,2187,-2.6983,10.4411,-0.419,-0.1927,-0.1188,0.2609,29.03
5390,2160,-3.2609,10.5177,-0.3208,-0.0298,0.0893,0.2848,29.03
5400,2299,-3.6751,10.671,0.1484,0.1146,0.3347,0.2806,29.03
5410,2128,-3.984,11.5879,0.9697,0.1887,0.5055,0.251,29.02
5420,2044,-4.0941,12.5408,1.4174,0.1964,0.5692,0.2038,29.02
5430,2020,-4.3766,13.0867,1.2594,0.2252,0.5913,0.1122,29.02
5440,2000,-4.561,13.3357,0.8978,0.2843,0.6595,0.0767,29.02
5450,1843,-4.1563,12.7204,0.6393,0.3062,0.8532,0.0778,29.02
5460,1872,-3.3303,11.7699,0.644,0.2555,1.1024,0.0687,29.04
5470,1798,-2.4995,10.6422,0.7135,0.0962,1.2153,0.0925,29.03
5480,1795,-2.0135,9.5648,0.9194,-0.1697,1.0563,0.1561,29.03
5490,1813,-2.0231,8.6981,1.2498,-0.4922,0.6971,0.2721,29.04
5500,1786,-2.4134,7.9918,1.6448,-0.7594,0.3637,0.4138,29.05
5510,1795,-2.9808,7.5753,1.8866,-0.8807,0.2164,0.5244,29.02
5520,1779,-3.6392,7.4053,1.8483,-0.8639,0.2395,0.5713,29.02
5530,1767,-4.2114,7.5968,1.6496,-0.7634,0.3965,0.5617,29.03
5540,1885,-4.6424,8.1618,1.4605,-0.6043,0.64,0.5036,29.03
5550,1904,-4.8985,9.0884,1.0511,-0.3869,0.9249,0.4287,29.04
5554,1938,-4.9033,9.4643,0.8523,-0.2846,1.0381,0.3896,29.03
5564,1908,-4.6687,10.5082,0.067,0.0128,1.2891,0.2619,29.03
5574,1865,-3.9361,11.4347,-0.6345,0.2896,1.5132,0.1351,29.04
5584,1903,-2.8443,11.9112,-0.838,0.4311,1.6657,0.0376,29.04
5594,1893,-1.6041,11.8058,-0.5914,0.3954,1.7277,-0.0187,29.05
5604,1873,-0.4166,11.3389,-0.1724,0.2273,1.6726,-0.0624,29.03
5614,1881,0.577,10.7859,0.261,-0.0179,1.4711,-0.1111,29.02
5624,1871,1.3168,10.2568,0.6057,-0.2627,1.1173,-0.1428,29.02
5634,1906,1.822,9.821,0.9409,-0.4509,0.639,-0.1404,29.03
5644,1974,2.1117,9.4355,1.142,-0.5684,0.1069,-0.1055,29.02
5654,1808,2.0662,9.0908,1.257,-0.6217,-0.3744,-0.0594,29.03
5664,1856,1.5921,8.9352,1.2115,-0.5969,-0.7562,-0.0224,29.04
5674,1833,0.7901,8.8298,0.7207,-0.482,-0.9838,0.0072,29.04
5684,1999,-0.1125,8.6766,-0.0144,-0.2995,-1.0251,0.0128,29.03
5694,1985,-0.9146,8.3629,-0.7446,-0.1159,-0.9233,-0.0037,29.04
5704,2018,-1.5802,7.8721,-1.3455,0.0024,-0.773,-0.041,29.04
5714,2173,-2.0973,7.264,-1.7454,0.0453,-0.6233,-0.1034,29.04
5724,2061,-2.3032,6.6942,-1.968,0.0362,-0.5193,-0.1708,29.04
5734,2063,-2.4349,6.3686,-1.9441,0.0067,-0.4738,-0.2348,29.04
5744,2054,-2.4995,6.3303,-1.7047,-0.0155,-0.4572,-0.2854,29.03
5754,1904,-2.4014,6.5338,-1.4748,-0.0123,-0.4402,-0.3182,29.04
5764,1641,-2.2051,6.9216,-1.2139,0.0266,-0.4117,-0.3317,29.05
5774,1644,-1.9992,7.3215,-0.9768,0.1002,-0.3882,-0.3296,29.06
5784,1749,-1.7621,7.6734,-0.7829,0.1788,-0.3757,-0.312,29.04
5794,1789,-1.5658,7.9272,-0.7446,0.2236,-0.3808,-0.2737,29.05
5804,1766,-1.4629,8.0948,-0.8068,0.2102,-0.4045,-0.2124,29.05
5814,1879,-1.4509,8.1403,-0.9409,0.1399,-0.4445,-0.1482,29.03
5824,1454,-1.5012,8.2145,-1.1923,0.0344,-0.4852,-0.0935,29.04
5834,1277,-1.6568,8.339,-1.4605,-0.064,-0.5225,-0.0528,29.05
5844,4061,-1.8842,8.43,-1.6113,-0.114,-0.5529,-0.0248,29.05
5854,4095,-2.0901,8.4228,-1.6951,-0.1103,-0.5646,-0.0056,29.04
5864,4095,-2.1476,8.2815,-1.8818,-0.0642,-0.5476,0.0085,29.05
5874,1462,-2.0255,8.0325,-2.0183,-0.0067,-0.5145,0.028,29.05
5884,1745,-1.7813,7.7716,-2.162,0.0432,-0.4754,0.0584,29.06
5894,1758,-1.3551,7.7572,-2.1835,0.061,-0.4135,0.0765,29.05
5904,1759,-0.9385,8.023,-2.0973,0.0472,-0.3381,0.0914,29.05
5914,1774,-0.6057,8.4994,-1.8411,0.0317,-0.2907,0.1053,29.06
5924,1772,-0.4956,9.0668,-1.3719,0.0464,-0.2944,0.1159,29.05
5934,1864,-0.5938,9.4403,-0.9122,0.0861,-0.3395,0.1061,29.05
5944,1855,-0.9744,9.6319,-0.6105,0.1236,-0.3866,0.0837,29.05
5948,1840,-1.1181,9.6534,-0.5794,0.1266,-0.4013,0.0746,29.05
5958,1869,-1.4892,9.6558,-0.6153,0.0903,-0.4199,0.0298,29.07
5968,1970,-1.9201,9.7396,-0.7805,-0.0165,-0.4098,-0.0445,29.07
5978,1929,-2.4157,10.0341,-0.8452,-0.166,-0.3717,-0.1146,29.05
5988,2007,-2.9736,10.5991,-0.723,-0.2867,-0.292,-0.1332,29.06
5998,2016,-3.3327,11.2312,-0.5291,-0.328,-0.1689,-0.0762,29.04
6008,2064,-3.1915,11.5784,-0.4405,-0.2545,-0.0101,0.0045,29.04
6018,2090,-2.6408,11.7555,-0.5626,-0.06,0.129,0.0544,29.04
6028,2125,-1.8699,11.8992,-0.9385,0.2121,0.1889,0.0669,29.04
6038,2194,-1.0894,11.959,-0.9385,0.4642,0.1719,0.0634,29.06
6048,2189,-0.6393,11.9088,-0.5028,0.5284,0.0997,0.0613,29.06
6058,2210,-0.5339,12.2368,-0.2945,0.3291,0.0408,0.0378,29.07
6068,2202,-0.9074,12.9574,-0.067,-0.0994,-0.0258,-0.0133,29.04
6078,2164,-1.7693,13.781,0.6608,-0.684,-0.1791,-0.0354,29.05
6088,2097,-2.9042,14.133,1.8723,-1.2859,-0.4061,-0.041,29.05
6098,2061,-4.1372,14.1641,3.1915,-1.663,-0.619,-0.0693,29.06
6108,1956,-5.2265,14.2718,3.8978,-1.5426,-0.655,-0.1593,29.06
6118,1857,-6.2441,14.4706,3.8714,-0.8956,-0.429,-0.2753,29.07
6128,1773,-6.9264,13.9869,3.5937,0.0999,-0.016,-0.3584,29.06
6138,1729,-6.9097,12.1482,3.0287,1.1407,0.4333,-0.3651,29.06
6148,1674,-5.7006,9.1746,1.5347,1.8394,0.7719,-0.3331,29.06
6158,1696,-3.6512,6.0382,-0.2274,1.898,0.8665,-0.312,29.05
6168,1754,-1.2713,3.8092,-0.9792,1.3944,0.7005,-0.3147,29.05
6178,1725,0.826,2.9951,-0.7566,0.5881,0.3874,-0.3413,29.06
6188,1696,2.229,3.5865,0.0838,-0.2196,-0.0144,-0.3317,29.06
6198,1713,2.8228,5.1092,0.9026,-0.8553,-0.5031,-0.2483,29.07
6208,1835,2.4876,7.0078,1.6065,-1.194,-1.0182,-0.1279,29.07
6218,1678,1.3431,8.9112,2.1715,-1.2081,-1.4053,0,29.06
6228,1807,-0.3926,10.4459,2.7126,-0.9614,-1.5375,0.1063,29.07
6238,1650,-2.3631,11.3174,3.0789,-0.5305,-1.4021,0.1767,29.07
6248,1675,-4.0869,11.5041,2.9856,-0.0429,-1.0424,0.1767,29.06
6258,1767,-5.4324,11.1115,2.3391,0.3469,-0.6059,0.0962,29.08
6268,1737,-6.2225,10.2759,1.2689,0.5329,-0.2438,-0.0147,29.07
6278,1723,-6.3877,9.1746,0.0958,0.5073,-0.0234,-0.0954,29.07
6288,1761,-6.0071,8.0589,-0.8021,0.3232,0.0671,-0.118,29.06
6298,1803,-5.3558,7.2568,-1.0654,0.0634,0.073,-0.093,29.05
6308,1847,-4.5777,6.8738,-0.8619,-0.1777,0.093,-0.0277,29.06
6318,1792,-3.7014,6.8594,-0.3855,-0.3445,0.203,0.0522,29.07
6328,1745,-2.6815,7.1563,0.2777,-0.4218,0.3914,0.122,29.07
6338,1822,-1.6352,7.5968,1.0223,-0.4016,0.574,0.166,29.08
6342,1813,-1.2354,7.8075,1.312,-0.3754,0.6214,0.1735,29.08
6352,1781,-0.3759,8.1786,1.8076,-0.2734,0.6582,0.1719,29.07
6362,1934,0.1891,8.4443,2.047,-0.1641,0.5644,0.1617,29.05
6372,1953,0.4669,8.4276,1.7741,-0.0576,0.3944,0.1399,29.07
6382,2047,0.3448,8.1355,1.0223,0.0096,0.2004,0.1175,29.06
6392,2171,-0.1221,7.7788,0.1149,-0.0144,0.0325,0.0994,29.07
6402,2174,-0.747,7.5489,-0.6249,-0.1223,-0.0597,0.0967,29.07
6412,2055,-1.4198,7.5753,-0.9337,-0.2683,-0.0581,0.1034,29.06
6422,1879,-1.8459,7.762,-0.9337,-0.3746,0.0613,0.1303,29.07
6432,1781,-1.9776,8.0278,-0.6369,-0.429,0.223,0.1671,29.05
6442,1721,-1.9417,8.3222,-0.1532,-0.4338,0.3629,0.1721,29.07
6452,1863,-1.7549,8.5712,0.2394,-0.3874,0.4525,0.178,29.08
6462,1761,-1.5227,8.679,0.4166,-0.3115,0.5124,0.1623,29.09
6472,1844,-1.3336,8.6479,0.4238,-0.2361,0.5548,0.1279,29.07
6482,1953,-1.1732,8.5305,0.3112,-0.1839,0.5833,0.0871,29.08
6492,1829,-1.0582,8.3486,0.1245,-0.1615,0.603,0.0517,29.08
6502,1485,-0.9529,8.1283,-0.0934,-0.1759,0.6073,0.0234,29.09
6512,1486,-0.9242,8.0517,-0.3112,-0.2169,0.6057,0.0053,29.09
6522,4095,-0.9385,7.9966,-0.4453,-0.2582,0.6102,-0.0048,29.09
6532,4095,-0.9816,8.0302,-0.5746,-0.2755,0.6283,-0.0136,29.09
6542,4095,-1.1037,8.2145,-0.6991,-0.2545,0.6707,-0.0136,29.06
6552,1530,-1.1684,8.4946,-0.8667,-0.1785,0.7389,-0.0005,29.07
6562,1712,-1.1253,8.8777,-1.0343,-0.0464,0.8298,0.0168,29.08
6572,1941,-0.917,9.3134,-1.1875,0.1228,0.9222,0.044,29.09
6582,1897,-0.5938,9.6175,-1.2977,0.2974,0.9822,0.0645,29.09
6592,1877,-0.1963,9.7803,-1.4126,0.4218,0.9707,0.0743,29.08
6602,1886,0.1484,9.8545,-1.4222,0.4631,0.8537,0.0757,29.08
6612,1913,0.5028,9.8689,-1.4198,0.4317,0.6515,0.0637,29.08
6622,2017,0.6009,10.0293,-1.403,0.3365,0.4298,0.0533,29.07
6632,1971,0.6105,10.094,-1.3384,0.1836,0.2329,0.037,29.08
6642,1975,0.4166,10.5249,-1.0247,0.0075,0.0695,0.0277,29.08
6652,1987,0.0982,10.8984,-0.5674,-0.1295,-0.065,0.0477,29.07
6662,2013,-0.565,11.1594,-0.1006,-0.1506,-0.1689,0.057,29.08
6672,2071,-1.4078,11.3653,0.1556,-0.0637,-0.1929,0.0645,29.09
6682,2112,-2.3056,11.4634,0.2083,0.0807,-0.0791,0.0645,29.08
6692,2112,-3.1101,11.5592,0.3711,0.2057,0.1164,0.0754,29.09
6702,2171,-3.9648,12.0357,0.7661,0.288,0.3333,0.1135,29.11
6712,2185,-4.4796,12.6103,1.1061,0.3059,0.461,0.1226,29.1
6722,2211,-5.023,13.0149,1.0199,0.2774,0.5425,0.028,29.08
6732,2193,-5.691,13.362,0.735,0.292,0.6352,-0.0757,29.09
6736,2231,-5.8897,13.2806,0.6345,0.3325,0.6955,-0.101,29.08
6746,2201,-5.9448,12.3661,0.5986,0.5156,0.9433,-0.1625,29.09
6756,2131,-5.5569,11.2097,0.8667,0.6448,1.1831,-0.1631,29.09
6766,2093,-4.7597,9.6462,1.2689,0.6211,1.4218,-0.0669,29.08
6776,2083,-3.7565,8.1594,1.8052,0.3789,1.5551,0.0882,29.08
6786,2021,-2.8132,6.9647,2.3224,-0.0346,1.4933,0.2593,29.07
6796,1906,-1.9824,6.2273,2.9113,-0.5785,1.2145,0.4088,29.08
6806,1826,-1.5921,6.1387,3.5913,-1.1117,0.7866,0.5694,29.08
6816,1758,-1.7071,6.7277,3.9145,-1.452,0.3288,0.7544,29.08
6826,1734,-2.2673,8.1163,3.3662,-1.529,-0.0488,0.8687,29.09
6836,1710,-3.2274,10.252,1.8866,-1.2518,-0.142,0.8228,29.06
6846,1758,-4.2401,12.6366,0.4214,-0.611,0.1295,0.6147,29.07
6856,1702,-4.6711,14.0611,-0.3328,0.1346,0.6632,0.2934,29.09
6866,1710,-4.4077,13.9941,-0.3448,0.7338,1.2867,-0.0648,29.07
6876,1741,-3.5051,12.9191,-0.1125,1.0773,1.8151,-0.3147,29.09
6886,1727,-2.3487,11.5377,-0.1173,1.1405,2.0872,-0.4287,29.09
6896,1699,-1.2354,10.3525,-0.4166,0.9134,2.0121,-0.4104,29.09
6906,1802,-0.1652,9.3589,-0.7374,0.4724,1.6315,-0.2718,29.09
6916,1673,0.7087,8.8298,-0.7709,-0.0442,1.0808,-0.0943,29.07
6926,1808,1.1277,8.734,-0.486,-0.4975,0.5209,0.0634,29.07
6936,1749,1.1875,8.9112,-0.0192,-0.789,0.085,0.1833,29.09
6946,1659,1.0989,9.177,0.4788,-0.8756,-0.1879,0.2422,29.1
6956,1695,0.8499,9.3901,0.9074,-0.7544,-0.3493,0.226,29.09
6966,1671,0.4621,9.3877,0.9744,-0.4735,-0.4458,0.1628,29.1
6976,1706,-0.0168,8.995,0.6584,-0.1386,-0.4818,0.0757,29.09
6986,1683,-0.5578,8.1379,0.0287,0.1442,-0.4644,-0.0253,29.13
6996,1744,-1.1492,7.1467,-0.8164,0.3054,-0.4375,-0.1268,29.11
7006,1616,-1.743,6.2393,-1.7262,0.3224,-0.4202,-0.2094,29.11
7016,1675,-2.3559,5.7174,-2.3008,0.2078,-0.4048,-0.2625,29.1
7026,1646,-2.8491,5.6838,-2.3583,0.0389,-0.3706,-0.2721,29.09
7036,1707,-3.2106,6.0238,-2.071,-0.0781,-0.3048,-0.2443,29.1
7046,1734,-3.2825,6.5505,-1.5874,-0.0938,-0.2084,-0.1985,29.09
7056,1779,-3.0526,7.0916,-1.1277,-0.0285,-0.1071,-0.1569,29.09
7066,1863,-2.6432,7.4364,-0.8045,0.0743,-0.0165,-0.1226,29.1
7076,1822,-2.1117,7.6136,-0.6273,0.1625,0.049,-0.0938,29.09
7086,1735,-1.5419,7.6806,-0.6488,0.2044,0.0749,-0.0679,29.09
7096,1671,-1.0654,7.6998,-0.7015,0.194,0.052,-0.0418,29.08
7106,1511,-0.747,7.7261,-0.7973,0.1522,-0.0242,-0.0211,29.09
7116,1450,-0.6776,7.7428,-1.0367,0.1132,-0.1314,-0.0013,29.08
7126,1430,-0.7661,7.7907,-1.3551,0.1079,-0.2409,0.0149,29.1
7130,1378,-0.838,7.8123,-1.4509,0.1196,-0.2787,0.0195,29.09
7140,1431,-1.0678,7.8051,-1.6376,0.1743,-0.3451,0.0357,29.09
7150,1535,-1.2546,7.7764,-1.8244,0.2475,-0.3709,0.0546,29.07
7160,1407,-1.2737,7.7692,-2.1117,0.315,-0.3613,0.0674,29.09
7170,1392,-1.2689,7.9176,-2.332,0.3691,-0.344,0.0829,29.09
7180,880,-1.1803,8.0996,-2.4852,0.4053,-0.3355,0.1156,29.09
7190,2063,-1.2186,8.3103,-2.2027,0.4242,-0.3419,0.1324,29.1
7200,4095,-1.4629,8.5904,-1.9034,0.408,-0.3581,0.1631,29.1
7210,4095,-1.743,8.8585,-1.6616,0.3158,-0.3437,0.1783,29.1
7220,2096,-1.9609,9.2488,-1.47,0.1415,-0.2926,0.1553,29.09
7230,965,-2.0997,9.8019,-1.2474,-0.0829,-0.2411,0.0847,29.11
7240,1439,-2.217,10.5512,-0.9697,-0.299,-0.2094,-0.0376,29.09
7250,1577,-2.4972,11.4994,-0.5794,-0.4024,-0.1631,-0.1673,29.09
7260,1442,-2.988,12.5624,-0.1437,-0.2907,-0.0789,-0.226,29.11
7270,1447,-3.2346,13.3405,-0.0862,0.0093,0.0645,-0.2073,29.1
7280,1455,-3.0047,13.4291,-0.3974,0.4317,0.2502,-0.1809,29.1
7290,1491,-2.3391,13.0436,-1.0319,0.8772,0.3965,-0.1681,29.09
7300,1579,-1.4222,12.3349,-1.4293,1.198,0.4053,-0.1444,29.08
7310,1599,-0.7709,11.4443,-1.2186,1.1892,0.2166,-0.0698,29.1
7320,1651,-0.5602,11.1139,-1.1277,0.806,-0.0592,0.0282,29.1
7330,1680,-0.735,11.5377,-1.0056,0.1623,-0.3056,0.0882,29.1
7340,1687,-1.2498,12.3014,-0.2729,-0.6043,-0.551,0.0727,29.11
7350,1709,-2.0087,12.9933,0.7614,-1.2897,-0.8007,-0.0621,29.1
7360,1709,-3.45,13.8552,1.9441,-1.5969,-0.9678,-0.2164,29.1
7370,1722,-4.7357,14.3317,2.7629,-1.2982,-0.9292,-0.3144,29.09
7380,1719,-5.9328,14.698,2.7605,-0.4183,-0.6097,-0.4391,29.1
7390,1743,-6.4907,14.1138,2.399,0.7493,-0.1085,-0.5364,29.09
7400,1765,-6.0166,11.8441,1.6975,1.8506,0.3683,-0.542,29.13
7410,1858,-4.4604,8.2815,-0.0431,2.5101,0.6443,-0.4906,29.11
7420,1760,-2.4229,4.7812,-1.4389,2.4536,0.6312,-0.4397,29.09
7430,1795,-0.4621,2.7174,-1.7262,1.796,0.3467,-0.3925,29.1
7440,1810,0.9457,2.3367,-1.245,0.8005,-0.0903,-0.3411,29.11
7450,1738,1.4772,3.3782,-0.4836,-0.2435,-0.5921,-0.2268,29.11
7460,1586,1.2258,5.2744,0.158,-1.0797,-1.1072,-0.0797,29.12
7470,1745,0.1987,7.8266,0.644,-1.5583,-1.5154,0.0754,29.11
7480,1423,-1.3886,10.2544,1.2091,-1.6585,-1.7016,0.2308,29.09
7490,1360,-3.213,12.1649,1.8938,-1.4128,-1.5849,0.3379,29.1
7500,1410,-4.9249,13.3836,2.4876,-0.91,-1.189,0.3605,29.1
7510,1427,-6.3303,13.8217,2.6647,-0.3094,-0.6486,0.2899,29.1
7520,1419,-7.1204,13.2711,2.2003,0.2228,-0.1015,0.1588,29.09
7524,1378,-7.2305,12.7874,1.8579,0.4032,0.0975,0.1021,29.1
7534,1392,-6.948,11.2863,0.9146,0.7344,0.4756,-0.0011,29.11
7544,1448,-6.0741,9.5888,-0.1077,0.8402,0.6169,-0.0242,29.13
7554,1442,-4.9967,7.9895,-1.2378,0.7171,0.5724,0.0309,29.12
7564,1568,-3.8954,6.7014,-2.0901,0.4202,0.4946,0.1306,29.11
7574,1424,-2.9281,5.9544,-2.3008,0.0256,0.4836,0.2276,29.1
7584,1559,-1.9489,5.6862,-1.9992,-0.3691,0.5446,0.2942,29.1
7594,1495,-1.1133,5.9448,-1.2474,-0.66,0.603,0.332,29.11
7604,1469,-0.3232,6.517,-0.4669,-0.8175,0.6182,0.3395,29.11
7614,1505,0.395,7.1491,0.103,-0.8021,0.5801,0.3259,29.13
7624,1588,0.7805,7.6375,0.395,-0.672,0.4557,0.2817,29.11
7634,1527,0.8452,7.8913,0.3208,-0.4994,0.2888,0.2185,29.11
7644,1599,0.5555,7.9703,-0.0575,-0.3552,0.1628,0.149,29.11
7654,1615,0.0551,7.9631,-0.4597,-0.2848,0.1053,0.1007,29.11
7664,1583,-0.3687,7.92,-0.8284,-0.2886,0.1204,0.0786,29.1
7674,1591,-0.6369,7.8721,-0.9601,-0.3243,0.1836,0.0781,29.09
7684,1578,-0.8523,7.9607,-0.8308,-0.3749,0.2177,0.0802,29.11
7694,1575,-1.0726,8.1618,-0.6464,-0.4002,0.2348,0.0973,29.12
7704,1779,-1.2761,8.2672,-0.5986,-0.3904,0.2691,0.1119,29.11
7714,1722,-1.4293,8.272,-0.5148,-0.3421,0.3328,0.1085,29.1
7724,1767,-1.5443,8.2648,-0.5028,-0.2689,0.4173,0.0839,29.11
7734,1849,-1.5251,8.2217,-0.6177,-0.2044,0.506,0.0517,29.11
7744,2067,-1.4269,8.1738,-0.6943,-0.1668,0.574,0.0181,29.1
7754,1965,-1.2785,8.1451,-0.8332,-0.162,0.6054,-0.0203,29.11
7764,1969,-1.1564,8.1475,-1.0415,-0.1801,0.6113,-0.0528,29.12
7774,1676,-1.0989,8.1666,-1.2713,-0.1985,0.6097,-0.0709,29.1
7784,1564,-1.0175,8.2265,-1.4054,-0.1935,0.6198,-0.0754,29.1
7794,1664,-0.9218,8.339,-1.4796,-0.1548,0.6566,-0.0687,29.1
7804,1645,-0.7566,8.6263,-1.5682,-0.0829,0.7147,-0.0496,29.09
7814,1663,-0.5986,9.0309,-1.6783,0.0224,0.7719,-0.0213,29.11
7824,1712,-0.5124,9.4715,-1.7741,0.1474,0.7981,0.0189,29.12
7834,1760,-0.5052,9.7875,-1.8723,0.2518,0.7765,0.0584,29.12
7844,1744,-0.5435,9.9144,-1.9441,0.2872,0.712,0.0831,29.12
7854,1264,-0.6105,9.8689,-1.98,0.2443,0.6206,0.0898,29.12
7864,2111,-0.644,9.8234,-1.9201,0.1311,0.5175,0.077,29.12
7874,4095,-0.7302,9.9216,-1.7693,-0.0378,0.4202,0.0608,29.12
7884,4095,-0.8499,10.1107,-1.6089,-0.2094,0.3355,0.052,29.11
7894,2702,-1.154,10.3573,-1.3288,-0.3272,0.2561,0.0661,29.12
7904,1169,-1.4964,10.5967,-1.0798,-0.3547,0.1719,0.1029,29.12
7914,1793,-1.8459,10.6877,-0.905,-0.2785,0.1037,0.1426,29.13
7918,1818,-1.9537,10.7332,-0.8619,-0.2262,0.0922,0.1572,29.11
7928,1731,-2.0877,10.7141,-0.7111,-0.0754,0.1061,0.1932,29.11
7938,1779,-2.1237,10.7188,-0.5387,0.0573,0.1559,0.2124,29.1
7948,1840,-2.2625,11.0804,-0.2251,0.1303,0.1951,0.2161,29.11
7958,1906,-2.3631,11.7747,-0.0622,0.1228,0.2025,0.1852,29.12
7968,1851,-2.5977,12.5839,-0.1101,0.053,0.182,0.1007,29.1
7978,1872,-3.0622,13.0173,-0.1652,-0.0101,0.1673,0.024,29.1
7988,1917,-3.5147,13.2782,0.0192,0.0003,0.2076,0.0003,29.12
7998,1946,-3.4884,12.6749,0.1963,0.0741,0.4149,0.0352,29.12
8008,1986,-3.1412,11.5592,0.6081,0.137,0.7069,0.0778,29.12
8018,2021,-2.8228,10.3214,0.9457,0.0879,0.8791,0.141,29.13
8028,2079,-2.5905,9.2033,1.1779,-0.1396,0.8591,0.2395,29.11
8038,2084,-2.5043,8.193,1.3719,-0.5036,0.6848,0.3672,29.11
8048,2090,-2.7461,7.4915,1.6831,-0.8852,0.425,0.4874,29.11
8058,2096,-3.3854,7.331,2.047,-1.1618,0.1889,0.5995,29.11
8068,2145,-4.1444,7.8051,2.5091,-1.2353,0.0898,0.6587,29.1
8078,2146,-4.9823,8.9352,2.6743,-1.0419,0.1711,0.6491,29.12
8088,2146,-5.794,10.3382,2.2194,-0.6512,0.4298,0.5473,29.12
8098,2130,-6.3422,11.6933,1.3384,-0.1519,0.8415,0.3698,29.1
8108,2127,-6.2297,12.5217,0.4693,0.3629,1.3257,0.1535,29.11
8118,2093,-5.1882,12.7419,-0.1317,0.7493,1.7587,-0.0298,29.13
8128,2035,-3.5674,12.3206,-0.565,0.9076,2.0238,-0.1474,29.11
8138,2064,-1.798,11.5424,-1.0247,0.8029,2.052,-0.203,29.12
8148,2011,-0.3926,10.6135,-1.1109,0.4463,1.8461,-0.1932,29.13
8158,2000,0.5195,9.8785,-0.9122,-0.056,1.4613,-0.1148,29.12
8168,1885,1.1971,9.5385,-0.498,-0.5468,1.0293,-0.0101,29.13
8178,1823,1.6616,9.517,0.1053,-0.8831,0.6107,0.0746,29.14
8188,1877,1.8723,9.596,0.7159,-0.9936,0.2411,0.114,29.13
8198,1822,1.7741,9.5984,1.0894,-0.8892,-0.0522,0.1111,29.13
8208,1866,1.4054,9.5265,1.0008,-0.6555,-0.2673,0.0903,29.11
8218,1905,0.8236,9.1842,0.5028,-0.3858,-0.4013,0.0554,29.11
8228,1861,0.1604,8.5521,-0.2969,-0.1346,-0.4466,0.0093,29.13
8238,1937,-0.5243,7.7596,-1.0391,0.04,-0.4247,-0.0509,29.12
8248,1854,-1.1708,6.9719,-1.6113,0.1098,-0.3874,-0.114,29.12
8258,1901,-1.8004,6.3542,-1.992,0.0706,-0.3589,-0.1609,29.12
8268,1921,-2.2913,6.0071,-2.0997,-0.0352,-0.328,-0.1905,29.12
8278,1925,-2.6959,6.0214,-1.8938,-0.141,-0.2838,-0.2033,29.12
8288,1916,-2.9209,6.3159,-1.5467,-0.1892,-0.231,-0.1972,29.12
8298,1897,-2.9185,6.8187,-1.2139,-0.1615,-0.1743,-0.1828,29.12
8308,1953,-2.6911,7.2856,-0.9385,-0.0685,-0.1247,-0.1663,29.12
8312,1978,-2.5474,7.434,-0.8332,-0.0189,-0.109,-0.1607,29.12
8322,1839,-2.1261,7.6758,-0.7374,0.1079,-0.0863,-0.1447,29.12
8332,1915,-1.7645,7.7668,-0.7853,0.1852,-0.0797,-0.1279,29.13
8342,1923,-1.4317,7.7524,-0.9146,0.2038,-0.0821,-0.1077,29.13
8352,1894,-1.2378,7.7405,-1.0989,0.1607,-0.0823,-0.0802,29.13
8362,1871,-1.1779,7.7261,-1.3096,0.0887,-0.0818,-0.0474,29.12
8372,1966,-1.2905,7.7285,-1.5419,0.0133,-0.0831,-0.0165,29.14
8382,2195,-1.4844,7.8027,-1.7119,-0.033,-0.0821,0.0176,29.12
8392,1979,-1.6664,7.8841,-1.9728,-0.0328,-0.077,0.0432,29.12
8402,2320,-1.7909,7.9224,-2.2051,0.0077,-0.06,0.0669,29.12
8412,2182,-1.8172,7.9559,-2.3176,0.0661,-0.0416,0.0858,29.12
8422,2176,-1.7023,8.0302,-2.399,0.1191,-0.0115,0.1034,29.12
8432,2081,-1.4724,8.157,-2.5187,0.1514,0.028,0.1095,29.13
8442,1931,-1.2737,8.4874,-2.4804,0.1697,0.0584,0.1069,29.13
8452,1840,-1.1013,8.8945,-2.2625,0.1849,0.0674,0.1098,29.13
8462,1902,-1.0199,9.3134,-1.8866,0.2017,0.0658,0.105,29.13
8472,1888,-0.996,9.6798,-1.4605,0.2172,0.0629,0.0861,29.12
8482,1919,-0.9146,9.9024,-1.075,0.2137,0.0679,0.0594,29.12
8492,1954,-0.6919,10.0413,-0.7973,0.149,0.0685,0.0149,29.12
8502,1970,-0.5028,10.3142,-0.6512,-0.0099,0.0466,-0.0586,29.13
8512,1735,-0.6033,10.7045,-0.4022,-0.1972,-0.0035,-0.1348,29.14
8522,1405,-1.0151,11.2144,-0.1197,-0.2782,-0.0442,-0.1809,29.14
8532,3741,-1.561,11.6957,-0.1221,-0.1857,-0.0424,-0.1839,29.14
8542,4095,-1.81,11.8609,-0.5483,0.0653,0.0077,-0.1628,29.14
8552,4095,-1.7669,11.7005,-1.1684,0.4037,0.06,-0.1303,29.13
8562,1795,-1.4006,11.3342,-1.9609,0.7245,0.0384,-0.0847,29.15
8572,1635,-0.7901,10.9439,-2.8204,0.9308,-0.0717,-0.0354,29.13
8582,2038,-0.34,10.8984,-3.1149,0.9822,-0.218,0.004,29.13
8592,2011,-0.2729,11.2144,-2.8036,0.8503,-0.3712,0.0269,29.14
8602,1989,-0.5435,11.9423,-2.4277,0.5281,-0.4956,0.0285,29.14
8612,1989,-1.1253,12.8114,-1.9944,0.093,-0.5846,-0.0208,29.14
8622,2009,-2.0135,13.5512,-1.1899,-0.3698,-0.6963,-0.0997,29.14
8632,2002,-3.1268,13.9079,-0.0742,-0.7117,-0.8271,-0.1753,29.16
8642,2012,-4.1707,13.8145,1.0726,-0.7722,-0.8567,-0.1982,29.15
8652,2041,-5.1068,13.5344,1.9249,-0.4876,-0.7357,-0.1783,29.14
8662,2089,-5.6886,13.0556,2.0446,0.0293,-0.4975,-0.1593,29.17
8672,2053,-5.7676,12.1051,1.9297,0.6057,-0.2326,-0.1399,29.16
8682,2109,-5.2385,10.5872,1.7023,1.0936,-0.0456,-0.137,29.14
8692,2198,-4.2162,8.8131,1.2043,1.3435,-0.0003,-0.1527,29.15
8702,2119,-2.8922,7.0892,0.4094,1.2915,-0.081,-0.186,29.14
8706,2111,-2.3487,6.4955,0.091,1.1914,-0.1391,-0.2014,29.15
8716,2144,-0.9649,5.4205,-0.3639,0.7834,-0.344,-0.2411,29.15
8726,2283,0.1077,5.138,-0.407,0.2718,-0.6059,-0.2675,29.18
8736,2199,0.6919,5.6695,-0.2083,-0.2084,-0.8649,-0.2587,29.16
8746,2140,0.7638,6.7062,0.0311,-0.5716,-1.0584,-0.2153,29.14
8756,2223,0.1796,8.102,0.5219,-0.7701,-1.1706,-0.1391,29.13
8766,2102,-0.9457,9.5002,1.1301,-0.7799,-1.185,-0.0493,29.14
8776,2047,-2.2601,10.6686,1.81,-0.6174,-1.0693,0.045,29.16
8786,2137,-3.5291,11.3772,2.2362,-0.3251,-0.8511,0.1111,29.14
8796,2082,-4.6352,11.5664,2.0877,-0.0064,-0.5923,0.1268,29.14
8806,1936,-5.4708,11.2312,1.3886,0.2326,-0.3435,0.0986,29.14
8816,1983,-5.8634,10.4914,0.486,0.3363,-0.1276,0.0522,29.15
8826,1846,-5.7437,9.5529,-0.2777,0.3094,0.0245,0.0203,29.14
8836,1859,-5.2912,8.6407,-0.7973,0.1993,0.0949,0.0168,29.14
8846,1855,-4.6687,7.9009,-1.1157,0.0405,0.1069,0.0538,29.15
8856,1856,-3.96,7.4244,-1.2905,-0.1322,0.1135,0.126,29.14
8866,1803,-3.2298,7.1395,-1.3312,-0.3011,0.149,0.2044,29.13
8876,1882,-2.3798,7.1299,-1.2306,-0.4415,0.215,0.2787,29.14
8886,1888,-1.4796,7.2113,-0.9768,-0.5388,0.2774,0.3251,29.14
8896,1735,-0.4788,7.3358,-0.6393,-0.5708,0.3019,0.3368,29.14
8906,1910,0.2514,7.4579,-0.2801,-0.5281,0.2646,0.3022,29.15
8916,1955,0.6823,7.5274,-0.0958,-0.4522,0.1668,0.2483,29.15
8926,1963,0.6464,7.592,-0.2059,-0.3661,0.0554,0.1732,29.16
8936,2045,0.2921,7.6686,-0.5914,-0.3195,-0.0032,0.1085,29.14
8946,1994,-0.0886,7.7165,-0.9744,-0.316,0.0274,0.0829,29.15
8956,1942,-0.3663,7.8434,-1.0965,-0.3608,0.0786,0.081,29.16
8966,2039,-0.656,8.0972,-0.893,-0.4341,0.1082,0.089,29.14
8976,2033,-0.8499,8.4036,-0.5387,-0.4759,0.1388,0.0954,29.14
8986,1990,-0.972,8.7819,-0.1556,-0.4461,0.1881,0.0887,29.13
8996,2028,-1.0558,9.0621,0.1293,-0.3507,0.2497,0.0629,29.14
9006,2031,-1.1133,9.1459,0.2466,-0.2204,0.3096,0.0221,29.16
9016,2002,-1.1253,9.0022,0.0407,-0.101,0.3712,-0.0258,29.16
9026,2032,-1.1085,8.7388,-0.2634,-0.0293,0.4309,-0.0733,29.16
9036,2078,-1.0319,8.4539,-0.6225,-0.0133,0.4778,-0.1132,29.15
9046,2101,-0.972,8.2025,-0.893,-0.048,0.5004,-0.15,29.17
9056,2306,-0.9146,8.0086,-1.1301,-0.1053,0.5063,-0.1748,29.15
9066,2166,-0.9026,7.8985,-1.2043,-0.1599,0.5212,-0.1908,29.14
9076,2247,-0.9457,7.908,-1.1636,-0.1825,0.5646,-0.1953,29.15
9086,2290,-0.9625,8.0086,-1.1756,-0.1519,0.644,-0.1905,29.16
9096,2246,-0.9529,8.2863,-1.2498,-0.0717,0.7578,-0.1751,29.17
9100,2230,-0.8978,8.4324,-1.2929,-0.0256,0.8079,-0.1671,29.16
9110,2116,-0.7829,8.8394,-1.4317,0.1196,0.927,-0.1407,29.16
9120,1979,-0.6105,9.256,-1.4796,0.2928,0.9931,-0.1063,29.15
9130,1970,-0.51,9.6678,-1.4844,0.449,0.9694,-0.0674,29.15
9140,1913,-0.498,9.9551,-1.5419,0.5454,0.8553,-0.0376,29.15
9150,1969,-0.6057,10.0556,-1.719,0.5537,0.7048,-0.0293,29.15
9160,1993,-0.8068,10.0485,-1.9082,0.4679,0.5604,-0.0416,29.15
9170,1991,-1.0487,10.0365,-1.9704,0.2928,0.4351,-0.0586,29.17
9180,2043,-1.2258,10.0652,-1.9273,0.0711,0.3381,-0.0557,29.16
9190,1667,-1.4126,10.1706,-1.7717,-0.1223,0.2657,-0.0306,29.17
9200,1535,-1.5826,10.2663,-1.5658,-0.2201,0.2185,0.0173,29.17
9210,4095,-1.7214,10.2807,-1.4317,-0.2116,0.2062,0.0746,29.17
9220,4095,-1.7023,10.1873,-1.4461,-0.1426,0.2425,0.1308,29.15
9230,4095,-1.6041,10.0987,-1.4222,-0.0682,0.3195,0.1839,29.15
9240,1771,-1.5538,10.1897,-1.3647,-0.04,0.404,0.2268,29.14
9250,1765,-1.6424,10.7667,-1.1803,-0.0701,0.4565,0.2388,29.16
9260,1998,-1.8244,11.8441,-0.8643,-0.1124,0.4602,0.2185,29.17
9270,1935,-2.2817,12.8952,-0.6153,-0.0997,0.4431,0.1671,29.16
9280,1947,-3.0502,13.295,-0.5962,0.0024,0.4543,0.0645,29.15
9290,1979,-3.8714,13.5105,-0.3711,0.1727,0.562,-0.0011,29.17
9300,1942,-3.8762,12.8162,-0.1389,0.3395,0.7898,-0.0216,29.17
9310,1979,-3.4979,11.8202,0.1125,0.4162,1.0584,-0.0354,29.17
9320,1993,-2.885,10.5441,0.3065,0.3126,1.1996,0.0067,29.17
9330,2026,-2.4828,9.481,0.4884,0.0514,1.1141,0.0893,29.17
9340,2005,-2.1596,8.5832,0.7326,-0.3419,0.8434,0.2534,29.17
9350,2042,-1.9513,7.8626,1.0534,-0.7714,0.5177,0.4367,29.16
9360,2054,-2.1596,7.3143,1.2043,-1.1175,0.2643,0.587,29.17
9370,2064,-2.8659,6.936,1.2474,-1.3177,0.158,0.6726,29.16
9380,2147,-3.8379,6.8738,1.3886,-1.3603,0.2214,0.6856,29.18
9390,2181,-4.6855,7.0557,1.6089,-1.2553,0.4191,0.6281,29.16
9400,2199,-5.3606,7.6734,1.6209,-1.064,0.6816,0.5199,29.15
9410,2252,-5.7916,8.6814,1.3815,-0.8063,0.914,0.3778,29.17
9420,2122,-5.9687,10.0173,0.7949,-0.4636,1.0973,0.2257,29.16
9430,2156,-5.7437,11.5257,0.0455,-0.0679,1.263,0.0917,29.17
9440,2093,-4.7884,12.73,-0.6369,0.2968,1.4344,-0.0112,29.17
9450,2085,-3.0933,13.3812,-1.2881,0.5556,1.6001,-0.1106,29.16
9460,2112,-0.9577,13.2519,-1.7286,0.6454,1.6534,-0.1897,29.17
9470,2160,0.7805,12.4139,-1.6065,0.5092,1.5719,-0.219,29.16
9480,2006,1.968,11.2863,-1.0534,0.1564,1.3145,-0.1876,29.17
9490,1952,2.7653,10.3118,-0.2394,-0.319,0.9563,-0.1252,29.17
9494,1947,2.976,10.0245,0.17,-0.5076,0.7933,-0.0954,29.17
9504,1872,3.3016,9.5265,1.1085,-0.898,0.3368,-0.0213,29.18
9514,1831,3.2441,9.2656,1.9896,-1.1026,-0.1825,0.0373,29.18
9524,1866,2.6049,9.2703,2.4253,-1.0712,-0.7008,0.0711,29.17
9534,1817,1.6257,9.4475,1.9585,-0.846,-1.096,0.101,29.18
9544,1790,0.5507,9.5122,0.9912,-0.4772,-1.2529,0.0933,29.19
9554,1857,-0.4118,9.3613,-0.0934,-0.0456,-1.1956,0.0445,29.18
9564,1822,-1.1349,8.8777,-0.9984,0.3408,-1.0323,-0.0464,29.17
9574,1795,-1.6783,8.1163,-1.6305,0.5958,-0.8585,-0.1687,29.17
9584,1806,-2.071,7.2568,-2.1644,0.6909,-0.7173,-0.2625,29.17
9594,1861,-2.332,6.462,-2.4756,0.6182,-0.6185,-0.3131,29.16
9604,1867,-2.4541,5.9616,-2.4876,0.4221,-0.5516,-0.3379,29.18
9614,1849,-2.545,5.8993,-2.3559,0.1737,-0.5047,-0.3411,29.16
9624,1821,-2.5786,6.1723,-2.1069,-0.0328,-0.4596,-0.3264,29.17
9634,1863,-2.4995,6.6774,-1.9082,-0.1332,-0.4021,-0.304,29.19
9644,1847,-2.3128,7.2401,-1.6831,-0.1143,-0.3424,-0.2702,29.18
9654,1929,-2.0518,7.6782,-1.4868,-0.0003,-0.3043,-0.2348,29.17
9664,1783,-1.8004,7.9966,-1.4293,0.1564,-0.2851,-0.19,29.18
9674,1717,-1.6281,8.0709,-1.5658,0.288,-0.292,-0.1199,29.17
9684,1840,-1.4844,7.9511,-1.8866,0.3504,-0.3283,-0.0314,29.18
9694,1993,-1.4365,7.7165,-2.1907,0.3195,-0.3922,0.0634,29.19
9704,1776,-1.5419,7.6255,-2.4852,0.2068,-0.4762,0.1492,29.18
9714,1749,-1.6927,7.6638,-2.6935,0.056,-0.534,0.2212,29.18
9724,1872,-1.8172,7.7812,-2.5953,-0.081,-0.5478,0.2801,29.17
9734,2092,-1.8771,7.9511,-2.1763,-0.17,-0.5364,0.3256,29.18
9744,2032,-1.9106,8.1163,-1.7238,-0.2156,-0.5428,0.3549,29.17
9754,2038,-1.9489,8.3534,-1.3815,-0.2158,-0.5622,0.3746,29.19
9764,2137,-1.8818,8.6526,-1.3072,-0.1889,-0.5724,0.3754,29.19
9774,2081,-1.7933,8.983,-1.3408,-0.1506,-0.5558,0.3499,29.17
9784,2033,-1.6688,9.3494,-1.2665,-0.0895,-0.5105,0.3195,29.18
9794,1889,-1.5419,9.6845,-1.1205,0.0061,-0.4442,0.2766,29.18
9804,1793,-1.415,10.0245,-1.087,0.1226,-0.3467,0.2321,29.18
9814,1807,-1.2761,10.2496,-1.0271,0.2529,-0.206,0.1804,29.17
9824,1746,-1.1229,10.4459,-1.0127,0.3541,-0.0637,0.1319,29.17
9834,1781,-0.9768,10.7308,-1.0247,0.3736,0.029,0.077,29.17
9844,1797,-0.9242,11.1235,-1.1325,0.3238,0.0679,0.0211,29.17
9854,1819,-1.0367,11.6023,-1.3096,0.2646,0.0861,-0.0205,29.17
9864,1740,-1.1899,12.0165,-1.4796,0.259,0.1167,-0.0061,29.19
9874,1283,-1.1492,12.1242,-1.5778,0.3512,0.1468,0.0413,29.19
9884,2981,-0.9409,12.0524,-1.731,0.5204,0.1399,0.0957,29.18
9888,4095,-0.8332,12.0141,-1.834,0.5998,0.1202,0.1159,29.17
9898,4095,-0.4142,11.9495,-2.0087,0.8045,0.0325,0.1593,29.17
9908,4095,-0.079,11.9255,-1.7406,0.9358,-0.1162,0.1927,29.19
9918,1278,-0.0215,12.0716,-1.5036,0.8791,-0.3,0.2113,29.19
9928,1771,-0.0886,12.5193,-1.4916,0.6158,-0.4607,0.1791,29.18
9938,1890,-0.5698,13.1873,-1.2905,0.2022,-0.6238,0.1058,29.16
9948,1807,-1.3599,13.6374,-0.68,-0.4309,-0.8857,-0.0117,29.18
9958,1836,-2.7222,13.9941,0.2514,-1.04,-1.1373,-0.1098,29.18
9968,1840,-4.3191,14.1569,1.0415,-1.384,-1.2995,-0.1151,29.18
9978,1835,-5.7581,13.7978,1.5179,-1.2854,-1.2297,-0.0877,29.19
9988,1814,-7.1515,13.0676,2.0231,-0.752,-0.8199,-0.1013,29.18
9998,1827,-8.0421,11.9902,2.7701,0.0474,-0.1316,-0.129,29.17
10008,1855,-7.9176,10.5129,3.2729,0.9153,0.6678,-0.1815,29.18
10018,1872,-6.517,8.8514,2.8946,1.622,1.3275,-0.2462,29.17
10028,1853,-4.2449,6.9121,1.6975,1.9529,1.6126,-0.3075,29.19
10038,1916,-1.6113,4.8698,0.3256,1.8479,1.4029,-0.336,29.19
10048,1988,0.8068,3.2729,-0.6943,1.3864,0.7933,-0.3246,29.18
10058,1969,2.6528,2.5786,-0.9481,0.7069,-0.0016,-0.2659,29.19
10068,2017,3.5626,3.0215,-0.498,-0.0293,-0.7464,-0.1647,29.17
10078,1995,3.371,4.3646,0.1245,-0.7059,-1.3771,-0.0613,29.17
10088,2096,2.1668,6.2034,0.6584,-1.1951,-1.8503,0.028,29.19
10098,2076,0.3711,8.1211,1.154,-1.3787,-2.0422,0.0935,29.19
10108,2027,-1.8148,9.7971,1.6688,-1.2337,-1.8764,0.1226,29.18
10118,2030,-4.039,11.0133,1.8675,-0.8284,-1.3821,0.1053,29.19
10128,1984,-5.94,11.5736,1.7693,-0.3086,-0.7096,0.0352,29.17
10138,1984,-7.2664,11.4994,1.3862,0.1537,-0.0815,-0.0693,29.17
10148,1969,-8.0062,10.896,0.7278,0.4271,0.384,-0.1612,29.17
10158,1904,-8.0709,10.0676,-0.1269,0.4735,0.6686,-0.1841,29.17
10168,1833,-7.4555,9.0812,-0.8835,0.3613,0.7981,-0.141,29.18
10178,1821,-6.4524,8.3079,-1.1971,0.1553,0.8202,-0.0437,29.19
10188,1773,-5.1643,7.8793,-1.142,-0.1124,0.7767,0.0711,29.18
10198,1779,-3.7182,7.7955,-0.8428,-0.3922,0.7258,0.1932,29.18
10208,1767,-2.2889,8.0565,-0.3496,-0.6155,0.6973,0.2923,29.19
10218,1809,-0.9673,8.4994,0.1987,-0.7458,0.6811,0.3552,29.19
10228,1845,0.0048,9.0884,0.6871,-0.8021,0.6222,0.3864,29.17
10238,1840,0.7135,9.323,0.9768,-0.7951,0.5151,0.3605,29.18
10248,1845,1.0702,9.2799,0.6009,-0.7085,0.4533,0.287,29.18
10258,1840,1.1923,8.8585,-0.2322,-0.5955,0.433,0.2033,29.18
10268,1872,0.9649,8.3462,-1.1301,-0.599,0.3784,0.134,29.17
10278,1841,0.5483,7.8769,-1.7957,-0.7117,0.3016,0.1079,29.19
10282,1874,0.3591,7.7405,-1.9106,-0.7685,0.2718,0.11,29.19
10292,1891,-0.1197,7.6112,-1.8411,-0.8926,0.2148,0.1311,29.19
10302,1904,-0.5267,7.8266,-1.5155,-0.955,0.1913,0.1665,29.19
10312,1929,-0.8787,8.2313,-1.0846,-0.9395,0.2121,0.2012,29.18
10322,1945,-1.1061,8.6239,-0.7254,-0.8503,0.2811,0.2158,29.19
10332,1904,-1.2139,8.849,-0.4836,-0.7013,0.3805,0.215,29.18
10342,1884,-1.2737,8.8873,-0.5171,-0.542,0.4959,0.1916,29.18
10352,1874,-1.3144,8.7628,-0.6153,-0.4277,0.6091,0.1599,29.19
10362,1911,-1.3695,8.5329,-0.747,-0.3706,0.7008,0.1194,29.2
10372,1926,-1.4557,8.4252,-0.8045,-0.3736,0.7903,0.0823,29.21
10382,1902,-1.5347,8.3821,-0.7709,-0.4021,0.8732,0.0613,29.21
10392,1933,-1.5538,8.4156,-0.6752,-0.4325,0.9489,0.0434,29.19
10402,1962,-1.5299,8.4539,-0.6345,-0.449,1.0208,0.0141,29.17
10412,2027,-1.4461,8.4827,-0.6033,-0.4351,1.1021,-0.0266,29.19
10422,2080,-1.3575,8.4587,-0.577,-0.392,1.1977,-0.0533,29.19
10432,2192,-1.2234,8.3582,-0.4884,-0.3397,1.2894,-0.0658,29.19
10442,2103,-1.0798,8.2791,-0.4214,-0.2867,1.3598,-0.0618,29.18
10452,2111,-0.9649,8.3534,-0.3448,-0.2332,1.4053,-0.0458,29.18
10462,2002,-0.9098,8.5784,-0.3663,-0.1761,1.4261,-0.0181,29.2
10472,1813,-0.8739,8.8753,-0.5626,-0.109,1.424,0.0179,29.2
10482,1792,-0.7877,9.2632,-0.8763,-0.0205,1.3955,0.0549,29.19
10492,1795,-0.6393,9.5936,-1.1157,0.0927,1.3598,0.0781,29.21
10502,1815,-0.431,9.7971,-1.336,0.202,1.3278,0.0842,29.2
10512,1806,-0.2107,9.8737,-1.494,0.2523,1.2881,0.077,29.21
10522,1819,-0.0383,9.9096,-1.4892,0.1993,1.2311,0.0735,29.2
10532,1798,0.0622,10.0365,-1.3647,0.0552,1.149,0.0807,29.19
10542,1698,0.0048,10.2999,-1.1013,-0.1162,1.0235,0.1007,29.2
10552,1288,-0.3017,10.5776,-0.7446,-0.2438,0.8577,0.1271,29.18
10562,2823,-0.7518,10.829,-0.4142,-0.2817,0.6805,0.1641,29.2
10572,4095,-1.1612,11.0301,-0.1963,-0.2222,0.5532,0.1948,29.19
10582,4095,-1.5993,11.1618,-0.2059,-0.089,0.5319,0.214,29.19
10592,1829,-1.9609,11.2887,-0.3807,0.0586,0.6123,0.2092,29.18
10602,1343,-2.3439,11.4443,-0.6153,0.1559,0.7493,0.1839,29.18
10612,1822,-2.6695,11.8465,-0.5986,0.1996,0.8857,0.1577,29.19
10622,1751,-2.818,12.2559,-0.4693,0.2118,1.0019,0.1308,29.18
10632,1777,-2.9161,12.4786,-0.4142,0.2206,1.0762,0.0917,29.17
10642,1799,-2.9856,12.4163,-0.3855,0.2254,1.1175,0.0869,29.19
10652,1798,-2.8874,11.8609,-0.3831,0.1988,1.1596,0.1322,29.19
10662,1796,-2.6432,10.9032,-0.1293,0.0853,1.1967,0.1977,29.19
10672,1833,-2.4852,9.8282,0.4022,-0.1287,1.1711,0.2769,29.19
10676,1845,-2.4852,9.4116,0.6632,-0.2401,1.1349,0.3096,29.19
10686,1829,-2.557,8.4994,1.2258,-0.5574,0.9974,0.3965,29.19
10696,1878,-2.6671,7.8961,1.7334,-0.8703,0.8391,0.4983,29.19
10706,1903,-2.8563,7.6782,2.1356,-1.069,0.6856,0.5918,29.18
10716,1898,-3.158,7.841,2.4014,-1.0797,0.5971,0.6925,29.18
10726,2014,-3.5482,8.2768,2.4924,-0.9182,0.6251,0.7426,29.18
10736,2019,-4.0151,9.165,2.3894,-0.6384,0.8553,0.7474,29.18
10746,2038,-4.2784,10.5321,1.9178,-0.3453,1.3131,0.8068,29.17
10756,2003,-3.8738,11.2504,1.64,-0.0863,1.8274,0.9196,29.17
10766,2063,-2.8347,12.038,1.166,0.101,1.9902,0.7576,29.19
10776,2112,-1.8387,12.7467,0.7326,0.1663,1.7826,0.3272,29.2
10786,2001,-1.3815,13.5823,0.3687,0.109,1.5007,-0.0426,29.21
10796,2067,-0.8619,13.4147,0.3448,0.0096,1.3334,-0.1577,29.19
10806,2106,-0.2538,12.7108,0.3448,-0.1013,1.2351,-0.1852,29.19
10816,2089,0.4238,11.971,0.261,-0.2209,1.1333,-0.1721,29.19
10826,1990,1.0654,11.303,0.3663,-0.3277,0.9657,-0.1226,29.21
10836,1919,1.5826,10.7452,0.6536,-0.4077,0.6968,-0.0432,29.2
10846,1856,1.9225,10.2041,1.0199,-0.4397,0.3379,0.0384,29.19
10856,1792,2.0207,9.6941,1.1301,-0.397,-0.0573,0.0922,29.2
10866,1792,1.7406,9.1602,0.8523,-0.2947,-0.4207,0.1071,29.2
10876,1798,1.1133,8.4515,0.1987,-0.1785,-0.6827,0.0757,29.19
10886,1777,0.2179,7.6614,-0.6656,-0.093,-0.7975,0.0163,29.2
10896,1778,-0.668,6.8354,-1.4676,-0.0757,-0.7786,-0.0512,29.19
10906,1808,-1.391,6.098,-1.9345,-0.1143,-0.672,-0.1026,29.2
10916,1832,-1.8603,5.6168,-2.0782,-0.1868,-0.5396,-0.1332,29.21
10926,1831,-2.15,5.4085,-2.0542,-0.271,-0.4154,-0.1474,29.18
10936,1786,-2.2817,5.466,-1.8292,-0.3392,-0.3096,-0.1516,29.2
10946,1872,-2.2529,5.6958,-1.5538,-0.3667,-0.2172,-0.1519,29.2
10956,1803,-2.1404,6.0454,-1.2354,-0.3504,-0.1412,-0.1543,29.2
10966,1822,-1.8771,6.3877,-0.972,-0.2952,-0.0941,-0.1559,29.21
10976,1835,-1.6328,6.7397,-0.8859,-0.2209,-0.0608,-0.1615,29.22
10986,1801,-1.2929,6.9528,-0.917,-0.174,-0.0301,-0.1514,29.22
10996,1836,-1.0223,7.1156,-1.0032,-0.1764,-0.0141,-0.1298,29.2
11006,1837,-0.7901,7.2592,-1.0558,-0.2177,-0.012,-0.0938,29.19
11016,1853,-0.7661,7.4172,-1.0151,-0.2803,-0.0168,-0.0386,29.2
11026,1914,-0.8499,7.5633,-1.0199,-0.3587,-0.0538,0.0365,29.19
11036,1868,-1.0319,7.7668,-1.1612,-0.4554,-0.1292,0.1098,29.19
11046,1904,-1.2091,8.0254,-1.4461,-0.5526,-0.2233,0.1751,29.2
11056,1934,-1.2809,8.3629,-1.8627,-0.6336,-0.3022,0.2348,29.19
11066,1978,-1.1229,8.7843,-2.0925,-0.6691,-0.3427,0.283,29.19
11070,2009,-1.0032,8.9615,-2.1117,-0.6627,-0.344,0.2955,29.19
11080,2079,-0.6704,9.5553,-2.0327,-0.574,-0.3006,0.3091,29.2
11090,2074,-0.3208,10.1658,-1.8771,-0.3736,-0.1833,0.2923,29.19
11100,2240,-0.0527,10.6015,-1.5921,-0.0991,-0.0216,0.2595,29.2
11110,2202,0.0551,10.7978,-1.1277,0.1993,0.15,0.2316,29.21
11120,2221,0.0766,10.6949,-0.6536,0.4549,0.2878,0.2193,29.19
11130,2096,0.2897,10.4675,-0.419,0.6019,0.3619,0.2217,29.2
11140,1911,0.6225,10.3549,-0.3304,0.5921,0.3371,0.239,29.2
11150,1870,0.7733,10.4914,-0.0742,0.4378,0.1974,0.2713,29.19
11160,1856,0.6608,10.7787,0.4693,0.1961,-0.0261,0.3088,29.19
11170,1914,0.1963,11.2623,0.8643,-0.0466,-0.2483,0.3544,29.19
11180,1879,-0.3831,11.8178,0.8811,-0.2033,-0.4032,0.3912,29.2
11190,1958,-0.7446,12.1673,0.4166,-0.1767,-0.4415,0.3688,29.2
11200,1861,-1.0894,12.5217,-0.3376,0.0778,-0.3421,0.2734,29.22
11210,1627,-1.1708,12.7802,-0.9194,0.4839,-0.1615,0.1796,29.22
11220,1441,-0.8356,12.706,-0.7063,0.8918,0.0834,0.129,29.21
11230,4095,-0.2777,12.5839,-0.0599,1.0786,0.3222,0.134,29.2
11240,4095,0.3256,12.5528,0.7733,0.9553,0.4679,0.1415,29.21
11250,4095,0.6201,12.7204,1.8747,0.5444,0.3904,0.1455,29.2
11260,1495,0.2945,13.2112,2.8108,0.0096,0.0829,0.1223,29.22
11270,1585,-0.8404,13.8648,3.3303,-0.6065,-0.396,0.0632,29.21
11280,1771,-2.241,14.0803,3.5147,-1.0973,-0.818,-0.012,29.19
11290,1677,-3.6871,13.939,2.8587,-1.1778,-0.9603,-0.2137,29.21
11300,1693,-5.7796,13.9726,1.8028,-0.7871,-0.7655,-0.5092,29.21
11310,1680,-8.0637,13.7571,2.0446,0.0048,-0.3336,-0.6249,29.2
11320,1683,-9.2847,12.4786,2.7821,0.9089,0.2419,-0.344,29.2
11330,1735,-7.8219,9.7516,2.5857,1.6699,0.8966,-0.1596,29.21
11340,1781,-5.3271,7.4891,1.3767,2.0784,1.3885,-0.1681,29.2
11350,1825,-2.217,5.2672,0.0144,1.9969,1.3432,-0.1737,29.2
11360,1853,0.7254,3.3806,-0.8045,1.4426,0.7698,-0.2044,29.21
11370,1883,2.6432,2.478,-0.7446,0.632,0.0192,-0.2177,29.19
11380,1951,3.644,2.5043,-0.2562,-0.1828,-0.5542,-0.1799,29.21
11390,1951,3.7445,3.3591,0.4573,-0.7983,-0.8572,-0.1244,29.2
11400,1975,3.2154,4.7621,1.0965,-1.1119,-0.922,-0.0533,29.19
11410,1999,2.3152,6.3446,1.6999,-1.1458,-0.8271,0.0245,29.2
11420,2006,1.0846,7.8673,2.375,-0.9779,-0.6579,0.0975,29.19
11430,2045,-0.2945,9.0932,2.9473,-0.6797,-0.4538,0.1519,29.21
11440,2046,-1.6807,9.8545,3.0813,-0.344,-0.2446,0.1657,29.2
11450,2047,-3.0358,10.252,2.4565,-0.0749,-0.044,0.11,29.22
11460,2070,-4.1683,10.489,1.1516,0.0376,0.1447,0.0149,29.21
11464,2059,-4.5586,10.5417,0.5842,0.0306,0.2153,-0.0304,29.2
11474,2043,-5.1547,10.6638,-0.4932,-0.0522,0.3704,-0.1508,29.21
11484,2037,-5.0422,10.8098,-0.9074,-0.1175,0.497,-0.2433,29.22
11494,1956,-4.4005,10.7955,-0.8571,-0.0701,0.6166,-0.2854,29.22
11504,1850,-3.3303,10.4938,-0.656,0.0698,0.7754,-0.2702,29.21
11514,1786,-2.1165,10.0437,-0.2945,0.2086,0.9438,-0.2228,29.21
11524,1749,-0.9529,9.5457,0.2634,0.2646,1.0315,-0.1532,29.2
11534,1709,0.0551,9.0477,0.8404,0.219,0.987,-0.0746,29.22
11544,1712,0.9337,8.5904,1.2067,0.0893,0.8231,-0.0075,29.22
11554,1711,1.6328,8.2552,1.2833,-0.0954,0.5633,0.0296,29.21
11564,1715,1.9273,8.1235,1.0319,-0.2907,0.2142,0.0384,29.21
11574,1717,1.9201,8.0421,0.5363,-0.4482,-0.126,0.0472,29.2
11584,1733,1.5634,7.9535,0.0407,-0.5785,-0.4407,0.0576,29.21
11594,1750,0.9242,8.0086,-0.3615,-0.6411,-0.6171,0.0919,29.21
11604,1734,0.3496,8.0732,-0.6608,-0.6496,-0.6566,0.0986,29.22
11614,1808,-0.1245,8.1906,-0.826,-0.6134,-0.5524,0.0999,29.21
11624,1852,-0.4645,8.3055,-0.7566,-0.5332,-0.3661,0.0594,29.21
11634,1832,-0.6464,8.4108,-0.5531,-0.4245,-0.15,0.0264,29.22
11644,1871,-0.5746,8.3965,-0.3328,-0.3096,0.0384,0.0029,29.21
11654,1876,-0.3424,8.2768,-0.2179,-0.2006,0.1631,-0.0048,29.21
11664,1874,-0.1844,8.1044,-0.091,-0.1306,0.1966,-0.0091,29.23
11674,1928,-0.0144,8.0134,0.0407,-0.1108,0.1815,0.0003,29.22
11684,1904,0.091,8.0278,0.0431,-0.1367,0.1628,0.0203,29.22
11694,1872,0.0407,8.169,0.0048,-0.2041,0.1759,0.0909,29.21
11704,1886,0.1484,8.1499,0.012,-0.2918,0.1745,0.1625,29.22
11714,1891,0.2083,8.1666,-0.0431,-0.3637,0.1508,0.145,29.22
11724,1936,0.0838,8.2935,-0.0407,-0.3842,0.1519,0.0645,29.22
11734,2019,-0.1915,8.4827,-0.0599,-0.3232,0.2214,-0.0349,29.22
11744,2075,-0.4238,8.7005,-0.1389,-0.1924,0.38,-0.0914,29.22
11754,2135,-0.4477,8.8681,-0.249,-0.0112,0.5809,-0.1058,29.22
11764,2223,-0.3184,9.1099,-0.3591,0.2025,0.7373,-0.0997,29.22
11774,2206,-0.1748,9.4188,-0.4956,0.4397,0.7991,-0.0751,29.23
11784,2163,-0.0072,9.7612,-0.7973,0.6512,0.7698,-0.0133,29.24
11794,1943,0.2466,9.8545,-1.1708,0.777,0.6694,0.044,29.23
11804,1857,0.3711,9.924,-1.6257,0.7597,0.5423,0.0887,29.22
11814,1824,0.4022,10.1155,-2.0087,0.5886,0.4295,0.1207,29.22
11824,1818,0.4501,10.5417,-2.1237,0.3174,0.3499,0.1532,29.21
11834,1874,0.395,11.1857,-2.1308,0.04,0.2707,0.1753,29.23
11844,1816,0.3065,11.5951,-2.0039,-0.174,0.2108,0.2324,29.25
11854,1830,-0.0599,11.959,-1.4724,-0.2627,0.2089,0.2984,29.24
11858,1837,-0.2466,12.0692,-1.2354,-0.2577,0.2209,0.3443,29.23
11868,1776,-0.577,12.0548,-0.5674,-0.1537,0.2896,0.4631,29.23
11878,1307,-0.7973,11.9303,0.0766,0.0498,0.377,0.5207,29.24
11888,2318,-1.142,12.1171,0.6129,0.2723,0.4908,0.5875,29.22
11898,4095,-1.4557,12.6677,0.8954,0.4357,0.6526,0.7994,29.24
11908,4095,-1.2019,12.6294,1.0415,0.4711,0.7602,1.1221,29.24
11918,2846,-0.6153,12.4953,0.4908,0.2675,0.6667,1.2508,29.25
11928,1295,-0.1317,12.5241,0.261,-0.0061,0.4181,1.1698,29.23
11938,1799,-0.2059,12.9598,0.0527,-0.2462,0.0727,0.8908,29.23
11948,1751,-0.5531,13.1561,0.0838,-0.3395,-0.1082,0.6478,29.23
11958,1725,-0.8882,12.6342,0.3136,-0.2766,-0.0125,0.5108,29.22
11968,1753,-1.1229,11.8082,0.8404,-0.1644,0.2158,0.4234,29.24
11978,1755,-1.2809,10.9415,1.7047,-0.0826,0.429,0.3528,29.22
11988,1797,-1.5299,10.1921,2.9209,-0.0325,0.5415,0.3174,29.22
11998,1845,-1.8459,9.4571,3.96,-0.0128,0.5185,0.3264,29.22
12008,1789,-2.3272,8.5976,4.4388,-0.0274,0.3978,0.3515,29.22
12018,1872,-2.9688,7.6567,4.1324,-0.0791,0.2563,0.3557,29.23
12028,1910,-3.6272,6.7277,3.1292,-0.1561,0.2217,0.3373,29.22
12038,1904,-4.4365,6.0669,1.9249,-0.2697,0.3174,0.3016,29.21
12048,1987,-5.114,5.8155,0.8356,-0.4157,0.489,0.2638,29.21
12058,2085,-5.4013,6.1794,0.1508,-0.5119,0.8284,0.2864,29.22
12068,2102,-5.2289,7.003,-0.1006,-0.5071,1.2343,0.3624,29.22
12078,2143,-4.2449,8.2025,-0.5602,-0.4178,1.6228,0.3912,29.25
12088,2204,-2.6049,9.5241,-0.8787,-0.2643,1.8828,0.307,29.25
12098,2160,-0.735,10.7619,-0.917,-0.0669,1.9478,0.1705,29.22
12108,2180,0.9816,11.5855,-0.7733,0.1138,1.7714,-0.0061,29.22
12118,2163,2.0853,11.8298,-0.6321,0.1905,1.5202,-0.1284,29.21
12128,2163,2.6863,11.5185,-0.2274,0.0802,1.3544,-0.2036,29.23
12138,2146,2.8515,10.9726,0.6776,-0.1644,1.2625,-0.2478,29.24
12148,2099,2.885,10.3932,1.7502,-0.4002,1.1426,-0.2518,29.22
12158,2015,2.7007,9.9958,2.5762,-0.5638,0.914,-0.2076,29.22
12168,1943,2.2817,9.7205,2.9185,-0.6638,0.5425,-0.1188,29.22
12178,1869,1.5993,9.5816,2.7869,-0.7178,0.0959,-0.0045,29.22
12188,1810,0.7518,9.5672,2.2553,-0.7178,-0.2979,0.1005,29.21
12198,1809,-0.1245,9.481,1.4676,-0.6294,-0.5284,0.1681,29.23
12208,1811,-0.996,9.4188,0.5171,-0.4293,-0.5764,0.146,29.22
12218,1818,-1.7286,9.323,-0.4764,-0.1873,-0.4543,0.0743,29.22
12228,1795,-2.1069,8.9639,-1.2522,0.0173,-0.2102,0.0147,29.24
12238,1842,-1.9848,8.2648,-1.5754,0.1295,0.0533,-0.0522,29.24
12248,1826,-1.5179,7.5609,-1.5514,0.1487,0.231,-0.1316,29.23
12252,1844,-1.3216,7.3263,-1.4796,0.1327,0.2665,-0.1607,29.24
12262,1856,-0.8499,6.8761,-1.1468,0.0581,0.2848,-0.2156,29.26
12272,1874,-0.4956,6.6559,-0.7757,-0.0544,0.239,-0.2326,29.23
12282,1855,-0.1796,6.6655,-0.565,-0.1879,0.1719,-0.2233,29.24
12292,1885,0.0551,6.8067,-0.4717,-0.311,0.121,-0.2076,29.24
12302,1835,0.1987,7.094,-0.5698,-0.3845,0.0938,-0.1889,29.24
12312,1871,0.2466,7.4148,-0.7111,-0.3968,0.0754,-0.1668,29.26
12322,1910,0.2322,7.7117,-0.8068,-0.3579,0.0605,-0.1503,29.24
12332,1885,0.0862,7.8985,-0.8236,-0.2942,0.052,-0.1316,29.25
12342,1866,-0.079,7.9942,-0.7542,-0.2276,0.0429,-0.109,29.24
12352,1873,-0.2921,8.0086,-0.7638,-0.1657,0.028,-0.0821,29.24
12362,1917,-0.5243,8.0086,-0.8643,-0.114,0.0061,-0.0538,29.23
12372,1872,-0.6704,8.0445,-1.0151,-0.0695,-0.0171,-0.0253,29.22
12382,1921,-0.7207,8.0038,-1.1229,-0.0221,-0.0304,0.0091,29.24
12392,1933,-0.6009,8.0038,-1.3743,0.0192,-0.0336,0.036,29.24
12402,2009,-0.2634,8.1211,-1.6185,0.0432,-0.024,0.0549,29.24
12412,2064,0.1413,8.3845,-1.8004,0.061,-0.012,0.069,29.22
12422,2157,0.4812,8.7484,-1.7909,0.0837,0.0013,0.0797,29.24
12432,2236,0.7566,9.0022,-1.5395,0.1031,0.0152,0.0829,29.25
12442,2189,0.8715,9.268,-1.0965,0.0927,0.0322,0.0778,29.24
12452,2113,0.9146,9.5122,-0.5315,0.0365,0.0282,0.0887,29.22
12462,1986,0.9792,9.9216,0.0192,-0.0682,-0.0226,0.1191,29.22
12472,1867,0.9385,10.3382,0.5602,-0.1935,-0.1295,0.1452,29.24
12482,1821,0.6608,10.9319,0.9697,-0.3102,-0.2563,0.1444,29.23
12492,1851,0.2658,11.5496,1.166,-0.3672,-0.3643,0.1172,29.25
12502,1863,-0.2466,12.299,1.0247,-0.2689,-0.4053,0.069,29.23
12512,1831,-0.68,13.1418,0.4094,-0.0029,-0.3651,0.0365,29.23
12522,1866,-0.8475,13.7236,-0.5267,0.3954,-0.2515,0.0136,29.22
12532,1861,-0.6225,13.8792,-1.664,0.8426,-0.1066,0.0101,29.22
12542,1453,0.079,13.5919,-2.7461,1.21,0.0165,0.033,29.23
12552,1791,1.0199,13.113,-3.0981,1.3939,0.0506,0.0754,29.22
12562,4095,1.6376,12.967,-2.5546,1.2963,0.012,0.1548,29.23
12572,4095,1.9106,13.1322,-1.4246,0.886,-0.041,0.2726,29.23
12582,4095,1.7573,13.4674,-0.1748,0.2694,-0.1375,0.3834,29.22
12592,1378,1.1875,13.9271,1.1851,-0.4423,-0.3304,0.457,29.25
12602,1743,0.2298,14.1617,2.6456,-1.1354,-0.6384,0.4762,29.24
12612,1819,-0.996,14.1473,3.9002,-1.6006,-0.9427,0.458,29.24
12622,1729,-1.9561,13.7619,4.3024,-1.63,-1.0512,0.3693,29.23
12632,1744,-3.7134,13.7331,4.0677,-1.2033,-0.9657,0.1876,29.24
12642,1776,-5.2385,13.4722,3.3662,-0.396,-0.647,0.0496,29.22
12646,1756,-5.351,13.0364,3.3184,0.0053,-0.4615,0.0093,29.22
12656,1734,-4.9009,11.2599,3.2561,1.064,-0.0269,-0.0762,29.23
12666,1777,-3.6344,8.6263,2.0423,1.8631,0.2078,-0.1015,29.23
12676,1802,-1.7286,5.8299,0.4908,2.132,0.1836,-0.1455,29.24
12686,1833,0.2658,3.6727,-0.2705,1.8706,-0.0533,-0.2201,29.23
12696,1895,1.8603,2.569,0.0383,1.2612,-0.3371,-0.2878,29.22
12706,1905,2.8898,2.6528,1.3001,0.5113,-0.5814,-0.2992,29.24
12716,1917,3.4069,3.5243,2.5259,-0.2366,-0.838,-0.2308,29.23
12726,1897,3.1843,4.8123,3.4405,-0.8463,-1.1674,-0.0973,29.24
12736,1965,2.1955,6.256,3.9193,-1.2084,-1.533,0.0517,29.26
12746,1968,0.5794,7.8266,3.8211,-1.2921,-1.792,0.166,29.27
12756,2005,-1.4341,9.4906,3.2226,-1.1663,-1.8431,0.2334,29.27
12766,2015,-3.4069,10.896,2.4253,-0.9118,-1.6697,0.2721,29.25
12776,1985,-5.3606,12.1194,1.5179,-0.6211,-1.3017,0.2878,29.22
12786,2023,-6.6056,12.4738,0.5938,-0.3443,-0.6835,0.316,29.24
12796,2011,-6.5122,12.1506,0.5171,-0.1034,-0.0107,0.194,29.24
12806,2054,-5.5761,11.3796,0.6201,0.1039,0.401,0.0528,29.25
12816,1968,-4.4963,10.252,0.4477,0.2641,0.5508,-0.0512,29.24
12826,1920,-3.5793,9.1363,0.1891,0.3589,0.5915,-0.0885,29.23
12836,1835,-2.7749,8.1547,0.1413,0.3443,0.6411,-0.0663,29.23
12846,1777,-1.8603,7.3741,0.3472,0.2537,0.7639,-0.0051,29.23
12856,1759,-0.8356,6.9791,0.8045,0.1079,0.975,0.0946,29.22
12866,1676,0.316,6.7732,1.4653,-0.077,1.1735,0.2022,29.24
12876,1697,1.3408,6.8474,2.1668,-0.3048,1.2383,0.2825,29.24
12886,1661,2.0686,6.9743,2.6264,-0.5561,1.1034,0.3339,29.23
12896,1691,2.5043,7.2951,2.5762,-0.8015,0.801,0.3781,29.24
12906,1714,2.5762,7.525,2.2673,-0.987,0.412,0.3941,29.25
12916,1759,2.0997,7.7835,1.6664,-1.073,0.0839,0.3262,29.24
12926,1730,1.1492,8.157,0.9266,-1.0392,-0.0767,0.2651,29.24
12936,1774,0.237,8.5497,0.0622,-0.9236,-0.0107,0.2217,29.24
12946,1808,-0.5387,8.7819,-0.6105,-0.7522,0.2854,0.1695,29.24
12956,1779,-0.7063,8.9376,-0.5315,-0.5345,0.6949,0.1383,29.25
12966,1792,-0.3448,8.9854,-0.0263,-0.3006,1.0293,0.1148,29.26
12976,1811,0.2203,8.8466,0.4166,-0.1034,1.2449,0.1122,29.25
12986,1840,0.8284,8.6646,0.7135,0.0029,1.3073,0.061,29.24
12996,1833,1.3264,8.6239,0.8404,0.024,1.2422,0.0115,29.24
13006,1855,1.6376,8.5952,0.8021,-0.0264,1.0909,-0.0171,29.25
13016,1833,1.7861,8.6407,0.7087,-0.1279,0.8881,-0.0288,29.26
13026,1859,1.7454,8.6646,0.5028,-0.2334,0.6877,-0.0365,29.26
13036,1871,1.5131,8.655,0.2849,-0.3168,0.5391,-0.0376,29.24
13040,1890,1.403,8.6503,0.1772,-0.3408,0.5004,-0.0346,29.24
13050,1872,1.087,8.5976,-0.1245,-0.389,0.4554,-0.0285,29.24
13060,1887,0.7638,8.4898,-0.3112,-0.425,0.481,-0.0261,29.24
13070,1979,0.4238,8.43,-0.328,-0.4218,0.5758,-0.0213,29.23
13080,2062,0.1413,8.497,-0.3352,-0.3619,0.7109,-0.0176,29.24
13090,2083,0.0814,8.6886,-0.395,-0.2364,0.8455,-0.0152,29.23
13100,2141,0.2107,8.9447,-0.5794,-0.0466,0.9278,-0.0115,29.24
13110,2122,0.5459,9.3111,-0.8954,0.1865,0.9377,-0.004,29.23
13120,2021,1.0271,9.7324,-1.1851,0.4458,0.8969,0.0005,29.23
13130,1841,1.4485,10.0269,-1.3838,0.6869,0.8338,0.012,29.24
13140,1775,1.6544,10.0916,-1.4868,0.8263,0.7871,0.033,29.24
13150,1767,1.6424,10.1035,-1.506,0.8095,0.7783,0.0586,29.25
13160,1717,1.3767,10.2448,-1.4365,0.6515,0.8076,0.0813,29.24
13170,1698,1.0702,10.5752,-1.1301,0.4247,0.8588,0.0989,29.24
13180,1691,0.6584,11.1067,-0.5555,0.238,0.8753,0.1002,29.24
13190,1654,0.237,11.7723,0.0503,0.1799,0.8311,0.0925,29.24
13200,1694,-0.261,12.5289,0.5148,0.2809,0.7536,0.0877,29.23
13210,1285,-0.6201,13.1011,0.4669,0.5305,0.7171,0.0738,29.24
13220,1743,-0.8978,13.4841,0.0096,0.8146,0.7621,0.0661,29.24
13230,4095,-1.2282,13.9965,-0.2682,1.0229,0.8868,0.1263,29.25
13240,4095,-1.1588,14.3317,-0.2059,1.0904,1.0341,0.2547,29.25
13250,3231,-0.9122,14.3532,-0.091,0.9899,1.1314,0.2952,29.24
13260,976,-0.7398,14.5855,0.1915,0.7509,1.1095,0.2553,29.23
13270,1645,-0.826,14.3508,0.8667,0.5548,0.9574,0.1375,29.25
13280,1644,-0.8763,13.4458,1.7382,0.4596,0.7163,-0.0296,29.24
13290,1586,-1.0104,11.983,2.5283,0.4509,0.5361,-0.1314,29.24
13300,1520,-1.1684,10.3956,3.3232,0.4754,0.4421,-0.11,29.25
13310,1513,-1.5251,9.0836,4.0462,0.4549,0.4205,0.0754,29.25
13320,1558,-1.6328,7.4651,5.035,0.381,0.4455,0.2883,29.25
13330,1654,-1.9273,6.4404,5.9735,0.287,0.4892,0.3352,29.25
13340,1591,-2.4493,5.8251,6.4739,0.1724,0.5033,0.3424,29.24
13350,1703,-2.7869,5.636,5.2648,0.0027,0.4852,0.3736,29.24
13360,1711,-3.2034,5.5761,3.0454,-0.4279,0.5167,0.3984,29.25
13370,1770,-3.2609,6.0142,0.6536,-0.8617,0.6384,0.4202,29.25
13380,1766,-2.964,7.3622,-1.7741,-1.0499,0.8825,0.3714,29.25
13390,1855,-2.5618,9.9814,-2.9257,-0.8599,1.2231,0.2313,29.25
13400,1949,-1.4533,12.311,-2.1189,-0.3611,1.4538,0.0983,29.25
13410,1968,-0.2729,13.4698,-0.7829,0.2228,1.5473,-0.0453,29.25
13420,1918,0.7566,13.3357,0.0144,0.6446,1.6595,-0.1372,29.24
13430,1932,1.6257,12.2056,0.2227,0.7682,1.7765,-0.1255,29.24
13434,1953,2.0423,11.5329,0.249,0.732,1.8008,-0.1303,29.24
13444,1990,2.9592,10.1347,0.5291,0.4988,1.7517,-0.1844,29.24
13454,1920,3.7781,9.3158,1.0989,0.2014,1.4893,-0.1684,29.25
13464,1891,4.4029,8.7604,1.8004,-0.1013,1.0024,-0.0794,29.25
13474,1897,4.6615,8.3222,2.3535,-0.3709,0.3669,0.016,29.25
13484,1831,4.4532,8.1163,2.4876,-0.5969,-0.2987,0.0781,29.26
13494,1786,3.7014,8.0852,2.3224,-0.7727,-0.9078,0.1252,29.25
13504,1740,2.6073,8.2768,1.8723,-0.8745,-1.3925,0.1609,29.23
13514,1654,1.2689,8.6239,1.1516,-0.8793,-1.6896,0.1625,29.25
13524,1707,0.0383,8.9232,0.3448,-0.7376,-1.7533,0.1202,29.25
13534,1590,-1.0199,9.0309,-0.4166,-0.4836,-1.6489,0.0349,29.26
13544,1632,-1.7214,8.8155,-1.0175,-0.2097,-1.4653,-0.065,29.25
13554,1626,-2.1668,8.3103,-1.4772,0.0043,-1.2502,-0.1556,29.27
13564,1633,-2.3463,7.75,-1.7645,0.1148,-1.0152,-0.218,29.26
13574,1621,-2.2194,7.2688,-1.7454,0.1034,-0.7719,-0.2518,29.25
13584,1648,-1.8124,6.9576,-1.415,-0.0029,-0.5391,-0.2633,29.25
13594,1659,-1.233,6.924,-0.8571,-0.154,-0.3544,-0.2569,29.25
13604,1611,-0.7039,7.0749,-0.2322,-0.2862,-0.2542,-0.2385,29.26
13614,1658,-0.2346,7.3119,0.2203,-0.3691,-0.2316,-0.2068,29.26
13624,1636,0.0096,7.5633,0.4262,-0.3925,-0.2673,-0.1679,29.25
13634,1665,0.0814,7.7309,0.3304,-0.376,-0.3224,-0.1191,29.25
13644,1653,-0.0646,7.8099,0.0144,-0.3523,-0.3637,-0.0687,29.27
13654,1671,-0.2466,7.865,-0.4238,-0.3437,-0.3741,-0.0176,29.26
13664,1664,-0.4046,7.8889,-0.8188,-0.3413,-0.3675,0.0234,29.25
13674,1712,-0.5938,7.9679,-1.1037,-0.3208,-0.377,0.057,29.25
13684,1680,-0.7039,8.1187,-1.3551,-0.2747,-0.4045,0.0861,29.26
13694,1675,-0.7853,8.3366,-1.6352,-0.2006,-0.4138,0.1114,29.26
13704,1712,-0.6728,8.5569,-1.9824,-0.1034,-0.3589,0.1343,29.24
13714,1712,-0.4597,8.7484,-2.0901,-0.0016,-0.2414,0.1601,29.25
13724,1706,-0.1556,8.9304,-1.9824,0.077,-0.0837,0.1817,29.24
13734,1712,0.1556,9.0644,-1.7861,0.1268,0.0839,0.2001,29.25
13744,1751,0.4717,9.1506,-1.47,0.1612,0.2134,0.2206,29.26
13754,1923,0.6536,9.2153,-0.9673,0.1801,0.2593,0.2361,29.26
13764,1961,0.7781,9.2296,-0.5124,0.158,0.2209,0.2422,29.26
13774,1951,0.893,9.335,-0.1437,0.089,0.1452,0.2318,29.28
13784,2112,1.0032,9.4882,0.1484,0.0112,0.0597,0.2062,29.25
13794,2058,1.0582,9.675,0.4142,-0.0328,-0.0189,0.1687,29.27
13804,1903,0.8763,10.1011,0.644,-0.0384,-0.0789,0.1191,29.25
13814,1789,0.7015,10.6207,0.7254,-0.0226,-0.1077,0.0869,29.25
13824,1664,0.51,11.2863,0.5794,0.0258,-0.1063,0.0719,29.26
13828,1661,0.4525,11.576,0.4764,0.0512,-0.1037,0.0773,29.25
13838,1706,0.4717,12.2463,0.1077,0.1252,-0.1023,0.1095,29.26
13848,1706,0.8499,12.7419,-0.4717,0.2462,-0.11,0.1234,29.27
13858,1731,1.3527,13.2447,-0.6225,0.404,-0.1295,0.0885,29.25
13868,1785,1.4724,13.6829,-0.0886,0.4983,-0.1633,0.0485,29.25
13878,1739,1.2617,13.9558,0.68,0.4037,-0.1204,0.053,29.27
13888,1522,0.7374,14.2359,1.6065,0.0719,0.0045,0.125,29.27
13898,1157,0.0958,14.3868,2.8156,-0.412,0.0949,0.2172,29.27
13908,3538,-0.8667,14.6358,4.1827,-0.9393,0.0618,0.2835,29.25
13918,4095,-1.9369,14.8464,5.3702,-1.3257,-0.0655,0.2635,29.27
13928,4095,-3.0335,15.1744,5.8059,-1.3182,-0.1593,0.134,29.26
13938,1415,-4.0869,15.5599,5.2002,-0.781,-0.1045,-0.093,29.26
13948,1371,-4.9488,15.6317,3.972,0.2166,0.1324,-0.3333,29.27
13958,1712,-4.8961,14.4682,2.8228,1.4157,0.4002,-0.47,29.28
13968,1623,-3.699,11.4227,0.6752,2.3483,0.4586,-0.4541,29.27
13978,1648,-1.6041,7.4005,-2.1141,2.6287,0.2832,-0.3861,29.27
13988,1730,0.498,4.0007,-3.7924,2.1685,0.0514,-0.3395,29.28
13998,1729,2.1117,2.1715,-3.2561,1.3419,-0.0911,-0.2779,29.26
14008,1758,3.2992,1.6999,-1.494,0.466,-0.1074,-0.2134,29.27
14018,1807,4.13,2.1045,0.3855,-0.2665,-0.0842,-0.166,29.26
14028,1767,4.7669,3.0215,1.8459,-0.7501,-0.0517,-0.1199,29.26
14038,1796,4.6232,4.3167,2.9161,-1.0229,-0.1314,-0.0456,29.27
14048,1819,3.8331,5.5713,3.9528,-1.1554,-0.3909,0.0512,29.26
14058,1810,2.4325,6.936,4.8171,-1.1397,-0.7344,0.1543,29.26
14068,1875,0.8595,8.0996,5.035,-0.9915,-1.0091,0.2595,29.27
14078,1925,-0.7494,9.2703,4.786,-0.7738,-1.153,0.3099,29.24
14088,1941,-2.1931,10.3406,3.9768,-0.5193,-1.1916,0.2345,29.26
14098,1973,-3.6176,11.4994,2.4876,-0.2446,-1.1066,0.0432,29.27
14108,2038,-5.1092,12.7084,0.4405,0.0437,-0.825,-0.1911,29.27
14118,2058,-6.4452,13.5608,-1.403,0.2558,-0.2846,-0.2491,29.27
14128,2096,-5.5138,12.5839,-1.6185,0.4207,0.3096,-0.3179,29.27
14138,2071,-3.8547,11.4227,-1.0439,0.5694,0.6843,-0.4285,29.26
14148,2013,-2.1691,10.4244,-0.3639,0.6608,0.9177,-0.388,29.27
14158,2021,-0.4022,9.3518,0.4884,0.6742,1.0656,-0.2779,29.26
14168,2001,0.9529,8.5425,1.4054,0.5963,1.1167,-0.1415,29.26
14178,1935,2.0423,7.9679,2.2386,0.4138,1.0317,0.0013,29.27
14188,1923,2.727,7.5585,2.7797,0.1223,0.7839,0.122,29.28
14198,1792,3.134,7.2449,2.9664,-0.2356,0.3984,0.182,29.27
14208,1754,2.9473,7.185,2.715,-0.5145,-0.0709,0.1684,29.27
14218,1777,2.2098,7.3909,1.8435,-0.6603,-0.5201,0.1471,29.27
14222,1774,1.8244,7.501,1.403,-0.6923,-0.6627,0.1396,29.26
14232,1763,0.7661,7.8051,0.2849,-0.7165,-0.874,0.1207,29.27
14242,1783,-0.3041,8.2576,-0.759,-0.671,-0.8287,0.1074,29.27
14252,1776,-1.0511,8.7173,-1.4174,-0.5601,-0.5324,0.105,29.26
14262,1810,-1.3479,9.0285,-1.5634,-0.4117,-0.0967,0.1116,29.28
14272,1842,-1.0894,9.1147,-1.1947,-0.2691,0.3136,0.113,29.27
14282,1846,-0.6081,9.0788,-0.5267,-0.149,0.5772,0.0999,29.27
14292,1867,-0.158,9.0046,0.0766,-0.057,0.6755,0.0919,29.27
14302,1862,0.2107,8.904,0.4908,0.0051,0.655,0.0919,29.29
14312,1898,0.4884,8.7891,0.747,0.0464,0.5764,0.0834,29.28
14322,1899,0.577,8.7077,0.7685,0.0738,0.5002,0.0629,29.27
14332,1902,0.6177,8.6431,0.6536,0.0911,0.4836,0.053,29.27
14342,1941,0.6847,8.5186,0.5124,0.0882,0.5172,0.0477,29.27
14352,1904,0.7302,8.4084,0.2825,0.0528,0.5716,0.0312,29.27
14362,1934,0.7877,8.2624,0.0144,0.0029,0.6374,0.0189,29.27
14372,1894,0.7374,8.181,-0.1101,-0.029,0.7021,0.0171,29.26
14382,1897,0.644,8.1882,-0.2346,-0.0216,0.7549,0.0256,29.27
14392,1925,0.6249,8.272,-0.3591,0.0373,0.7909,0.0333,29.26
14402,1902,0.6536,8.5138,-0.5052,0.1569,0.8183,0.044,29.28
14412,1919,0.7398,8.77,-0.8499,0.3267,0.8399,0.0445,29.27
14422,1952,0.8619,9.0908,-1.1396,0.5188,0.8575,0.0322,29.27
14432,2101,0.893,9.4308,-1.4078,0.7368,0.8596,0.0043,29.27
14442,2111,0.8954,9.6798,-1.5945,0.9326,0.8593,-0.0309,29.26
14452,2067,0.9098,9.7636,-1.7885,1.0304,0.8511,-0.0741,29.27
14462,2178,0.7829,9.6654,-1.9992,0.9753,0.8452,-0.1002,29.28
14472,2180,0.5722,9.6534,-2.1141,0.7647,0.8625,-0.0975,29.28
14482,2064,0.328,9.7444,-2.0734,0.4413,0.9036,-0.0877,29.27
14492,1843,0.1221,9.9671,-1.6855,0.0917,0.9361,-0.0679,29.27
14502,1799,0.0048,10.3837,-0.9936,-0.1817,0.9089,-0.037,29.28
14512,1731,-0.1532,10.9702,-0.2131,-0.2851,0.8037,0.0077,29.29
14522,1755,-0.3017,11.5401,0.3041,-0.1753,0.6811,0.044,29.28
14532,1776,-0.4932,11.9135,0.4405,0.0714,0.6456,0.0597,29.29
14542,1782,-0.6488,12.1482,0.2179,0.3123,0.7554,0.0701,29.27
14552,1826,-0.8092,12.5791,0.0814,0.4429,0.9419,0.0802,29.27
14562,1761,-0.7374,13.1322,0.0742,0.4503,1.0898,0.0789,29.3
14572,1380,-0.8212,13.5153,0.0168,0.3611,1.1668,0.0301,29.26
14582,1451,-1.1779,13.5081,-0.0958,0.2798,1.162,-0.0346,29.28
14592,4095,-1.494,13.0699,-0.1365,0.2875,1.1309,-0.0799,29.27
14602,4095,-1.5012,12.3158,-0.0263,0.3312,1.1399,-0.101,29.27
14612,4095,-1.3216,11.3964,0.2298,0.3317,1.2001,-0.0717,29.27
14616,2644,-1.2498,10.9918,0.4166,0.3064,1.2308,-0.0437,29.28
14626,1219,-1.0487,10.0341,0.9888,0.1956,1.2838,0.0501,29.27
14636,1730,-0.8835,9.1387,1.7502,0.0349,1.2657,0.1596,29.27
14646,1724,-0.8428,8.3127,2.4948,-0.1386,1.1692,0.2707,29.29
14656,1717,-1.063,7.5633,2.9113,-0.3064,1.0267,0.3643,29.27
14666,1702,-1.5969,7.1132,2.7701,-0.4719,0.9078,0.4389,29.26
14676,1770,-2.1955,6.9384,2.1141,-0.6017,0.8716,0.4756,29.27
14686,1796,-2.7366,7.3861,1.1995,-0.6579,0.9387,0.4586,29.27
14696,1808,-2.9832,8.3749,0.3017,-0.6113,1.0946,0.3981,29.29
14706,1806,-2.9042,9.7109,-0.5315,-0.4354,1.2875,0.295,29.29
14716,1857,-2.4565,11.1043,-1.1396,-0.166,1.497,0.1559,29.29
14726,1862,-1.6927,12.074,-1.087,0.089,1.679,0.0037,29.28
14736,1909,-0.8045,12.3445,-0.4238,0.234,1.8114,-0.118,29.29
14746,1931,0.158,12.0716,0.3926,0.234,1.8684,-0.1825,29.3
14756,2005,1.075,11.5233,1.0271,0.1183,1.8269,-0.1823,29.29
14766,2003,1.9154,10.8386,1.4317,-0.052,1.6454,-0.1215,29.27
14776,2027,2.6863,10.1634,1.6592,-0.2198,1.3147,-0.0538,29.28
14786,2077,3.1795,9.651,1.6999,-0.3725,0.8716,0.0234,29.28
14796,2064,3.4165,9.335,1.7214,-0.5057,0.3616,0.11,29.28
14806,2063,3.3471,9.153,1.6041,-0.5873,-0.0863,0.1825,29.27
14816,2030,2.9856,9.1028,1.2689,-0.5982,-0.5111,0.234,29.27
14826,2038,2.2649,9.2368,0.7542,-0.4999,-0.7949,0.2425,29.27
14836,2032,1.3791,9.2895,0.1891,-0.3043,-0.9113,0.2134,29.27
14846,1965,0.5387,9.1339,-0.4549,-0.056,-0.8945,0.1543,29.27
14856,1942,-0.1652,8.7364,-1.2809,0.1537,-0.8045,0.085,29.27
14866,1885,-0.6153,8.102,-2.0686,0.2537,-0.7083,0.0266,29.29
14876,1831,-0.8523,7.5226,-2.5738,0.2222,-0.6427,-0.0107,29.3
14886,1852,-0.9242,7.2305,-2.7366,0.0869,-0.5977,-0.0296,29.29
14896,1699,-0.9385,7.3071,-2.5307,-0.0935,-0.5433,-0.032,29.28
14906,1803,-0.9098,7.7093,-2.0997,-0.2507,-0.4599,-0.0195,29.27
14916,1761,-0.8547,8.2935,-1.6544,-0.3419,-0.3531,0.0056,29.28
14926,1925,-0.8045,8.8801,-1.2689,-0.3608,-0.2454,0.0456,29.28
14936,1683,-0.7973,9.3374,-0.9529,-0.3312,-0.1553,0.1005,29.28
14946,1625,-0.8284,9.5577,-0.6704,-0.2771,-0.0906,0.1665,29.29
14956,1643,-0.8787,9.5792,-0.4214,-0.227,-0.0533,0.2321,29.3
14966,1707,-0.9505,9.3781,-0.2011,-0.1852,-0.0397,0.2819,29.27
14976,1673,-1.0487,9.086,-0.1101,-0.1487,-0.0549,0.3091,29.27
14986,1680,-1.1756,8.7867,-0.2131,-0.1127,-0.0893,0.319,29.27
14996,1674,-1.2905,8.6455,-0.4884,-0.0722,-0.1226,0.3312,29.27
15006,1751,-1.3048,8.4659,-0.7566,-0.0173,-0.1372,0.3475,29.27
15010,1793,-1.2689,8.4276,-0.8523,0.0157,-0.1351,0.3496,29.28
15020,1727,-1.1037,8.3558,-1.1612,0.1207,-0.1111,0.3485,29.29
15030,1767,-0.826,8.2983,-1.4437,0.2398,-0.0578,0.3459,29.29
15040,1821,-0.431,8.1618,-1.5514,0.3531,0.0096,0.3347,29.28
15050,1776,-0.0503,8.0062,-1.5514,0.4274,0.0826,0.3246,29.29
15060,1745,0.3184,7.7931,-1.4676,0.4477,0.1679,0.323,29.29
15070,1854,0.6776,7.6591,-1.3982,0.4223,0.2422,0.336,29.3
15080,1873,0.9529,7.6255,-1.3815,0.352,0.2635,0.3528,29.29
15090,1831,1.0415,7.7021,-1.2977,0.2638,0.2294,0.3709,29.28
15100,1808,0.9673,7.9152,-1.2019,0.2094,0.1697,0.392,29.27
15110,1898,0.7446,8.3486,-1.0989,0.2001,0.1231,0.4066,29.3
15120,1898,0.5124,8.928,-0.9553,0.2137,0.1234,0.4122,29.29
15130,1949,0.3328,9.6151,-0.7446,0.2332,0.1719,0.4202,29.28
15140,2001,0.2251,10.2831,-0.5962,0.2537,0.2377,0.4205,29.27
15150,2179,0.2251,10.9223,-0.5555,0.2625,0.2963,0.4,29.28
15160,2157,0.3136,11.3892,-0.5483,0.2537,0.3501,0.3813,29.29
15170,2009,0.4405,11.5808,-0.4932,0.2611,0.3938,0.3587,29.29
15180,1919,0.6895,11.5089,-0.4908,0.3064,0.413,0.3373,29.3
15190,1801,1.1061,11.2408,-0.5818,0.4069,0.3928,0.3269,29.3
15200,1791,1.6951,11.0995,-0.8452,0.5415,0.3352,0.3341,29.3
15210,1717,2.4708,11.3054,-1.0295,0.6752,0.2558,0.3714,29.3
15220,1723,3.2034,11.8537,-0.7781,0.7725,0.1279,0.4293,29.29
15230,1818,3.6631,12.4858,-0.4741,0.7474,-0.0192,0.4775,29.29
15240,1808,3.4716,13.0221,-0.0838,0.5574,-0.1423,0.4815,29.29
15250,1833,2.7509,13.3596,0.3687,0.2406,-0.2374,0.4546,29.28
15260,1530,1.4964,13.5943,0.7159,-0.1335,-0.3451,0.3698,29.3
15270,1187,0.0527,13.6613,0.972,-0.4551,-0.4735,0.2004,29.27
15280,3363,-1.5826,13.7667,0.7422,-0.5337,-0.5399,-0.032,29.29
15290,4095,-3.1675,13.7882,0.1748,-0.3043,-0.4306,-0.2419,29.29
15300,4095,-4.5155,13.5129,0.1053,0.1969,-0.2105,-0.3632,29.3
15310,1690,-5.1906,12.4068,0.2825,0.8711,0.0781,-0.3445,29.31
15320,1409,-4.7166,10.1945,0.1867,1.5111,0.417,-0.2571,29.29
15330,1767,-3.5003,7.5705,-0.2825,1.8927,0.7123,-0.2419,29.3
15340,1669,-1.7669,5.035,-0.9697,1.8953,0.837,-0.2713,29.3
15350,1675,0.103,3.1173,-1.3431,1.505,0.7229,-0.295,29.3
15360,1712,1.8627,2.1668,-1.1756,0.8431,0.5129,-0.2803,29.28
15370,1719,3.292,2.1955,-0.3591,0.117,0.3371,-0.2393,29.29
15380,1695,4.0941,3.3232,0.4621,-0.5196,0.166,-0.1788,29.29
15390,1727,4.1635,5.2218,0.9146,-1.0032,-0.0397,-0.1077,29.29
15400,1719,3.3639,7.5489,1.1684,-1.2638,-0.2515,-0.0389,29.28
15404,1694,2.8706,8.4898,1.2282,-1.2889,-0.3112,-0.0163,29.28
15414,1740,1.4341,10.6853,1.336,-1.1365,-0.3496,-0.008,29.29
15424,1859,-0.2705,12.6198,1.2617,-0.7589,-0.2182,-0.0997,29.29
15434,1810,-2.162,14.1785,1.0127,-0.3056,0.0213,-0.2617,29.29
15444,1837,-3.9337,14.9925,0.7614,0.129,0.3272,-0.4215,29.28
15454,1885,-5.2648,15.014,0.5339,0.4756,0.7027,-0.5185,29.29
15464,1936,-5.6288,14.2287,0.1197,0.6941,1.1082,-0.4938,29.27
15474,1941,-4.8291,12.6941,-0.4477,0.7839,1.4232,-0.3712,29.28
15484,1950,-3.474,10.9774,-0.9242,0.7216,1.5346,-0.2598,29.29
15494,2032,-2.0446,9.4954,-1.2139,0.5161,1.4922,-0.1394,29.29
15504,1982,-0.7566,8.3606,-1.1971,0.2145,1.4192,-0.0306,29.29
15514,1935,0.2035,7.6974,-0.8332,-0.1164,1.3885,0.0536,29.29
15524,1984,0.9098,7.4196,-0.2466,-0.4207,1.3976,0.1202,29.29
15534,1967,1.4988,7.4867,0.34,-0.6342,1.4011,0.1628,29.27
15544,1842,1.8747,7.7524,0.7805,-0.7186,1.3446,0.1828,29.29
15554,1878,1.9441,8.0709,0.8595,-0.6912,1.2153,0.1857,29.29
15564,1773,1.6544,8.3558,0.5722,-0.6019,1.0509,0.1705,29.29
15574,1667,1.0367,8.5784,0.0407,-0.498,0.9316,0.1537,29.29
15584,1742,0.2849,8.7293,-0.486,-0.4109,0.9358,0.1404,29.29
15594,1683,-0.3783,8.8322,-0.9026,-0.3493,1.0781,0.121,29.31
15604,1687,-0.7398,8.9136,-1.0822,-0.3102,1.3161,0.0917,29.3
15614,1680,-0.8332,9.0285,-0.8428,-0.2777,1.5719,0.0594,29.31
15624,1695,-0.6488,9.0142,-0.3639,-0.2395,1.7507,0.0195,29.27
15634,1695,-0.3376,8.9256,0.1269,-0.1932,1.8365,-0.0216,29.28
15644,1664,-0.0335,8.8226,0.4836,-0.1577,1.8386,-0.0658,29.3
15654,1731,0.1221,8.7173,0.6584,-0.1484,1.8077,-0.1026,29.3
15664,1738,0.2107,8.6957,0.7326,-0.1753,1.7885,-0.1196,29.3
15674,1764,0.2227,8.8298,0.723,-0.2281,1.796,-0.1226,29.31
15684,1778,0.1676,9.0956,0.6728,-0.2713,1.8151,-0.1167,29.3
15694,1785,0.158,9.3948,0.5339,-0.2745,1.8341,-0.1077,29.3
15704,1787,0.2083,9.6893,0.419,-0.243,1.8524,-0.1058,29.3
15714,1775,0.3256,9.8761,0.3184,-0.1911,1.8522,-0.1164,29.3
15724,1762,0.5339,10.0078,0.2059,-0.1324,1.8221,-0.1327,29.29
15734,1803,0.8116,10.0365,0.0407,-0.0815,1.7621,-0.1471,29.29
15744,1826,1.1157,9.9671,-0.1413,-0.0498,1.7024,-0.1575,29.3
15754,1798,1.3886,9.833,-0.2729,-0.0498,1.635,-0.158,29.29
15764,1786,1.6065,9.7372,-0.3519,-0.0781,1.5812,-0.1524,29.29
15774,1822,1.7861,9.663,-0.3448,-0.1154,1.5306,-0.1351,29.29
15784,1775,1.8818,9.6558,-0.2777,-0.1455,1.4645,-0.1138,29.3
15794,1766,1.8842,9.5792,-0.1628,-0.1604,1.3699,-0.0911,29.3
15798,1794,1.8316,9.5624,-0.1365,-0.1599,1.3246,-0.0839,29.29
15808,1830,1.6017,9.4906,-0.1724,-0.1463,1.2009,-0.0711,29.28
15818,1961,1.2498,9.3877,-0.3041,-0.1298,1.0968,-0.065,29.29
15828,1978,0.8021,9.2584,-0.5435,-0.1231,1.0472,-0.0669,29.29
15838,2057,0.3089,9.1722,-0.7805,-0.1308,1.0651,-0.0727,29.31
15848,2088,-0.1389,9.074,-1.0558,-0.1625,1.1447,-0.0741,29.3
15858,2046,-0.5004,9.0764,-1.2091,-0.2142,1.2665,-0.0687,29.28
15868,1965,-0.735,9.1411,-1.233,-0.2654,1.4069,-0.0565,29.29
15878,1818,-0.8715,9.2775,-1.0942,-0.2843,1.5519,-0.0384,29.29
15888,1760,-0.8475,9.4068,-0.929,-0.2651,1.6795,-0.0197,29.3
15898,1757,-0.7925,9.5529,-0.7853,-0.2257,1.7896,-0.0035,29.29
15908,1773,-0.7398,9.596,-0.7973,-0.1916,1.873,0.0128,29.3
15918,1830,-0.7111,9.6127,-0.9385,-0.1756,1.9425,0.0192,29.3
15928,1839,-0.6393,9.6367,-1.0032,-0.1604,1.9998,0.0157,29.3
15938,1854,-0.5962,9.7731,-1.1205,-0.1407,2.0528,-0.0008,29.32
15948,1840,-0.4908,9.9359,-1.324,-0.113,2.1059,-0.0176,29.32
15958,1411,-0.316,10.149,-1.5275,-0.0522,2.161,-0.037,29.31
15968,1785,-0.0383,10.3022,-1.719,0.0378,2.2095,-0.0482,29.32
15978,4095,0.3184,10.3142,-1.9201,0.1335,2.242,-0.0482,29.31
15988,4095,0.7159,10.1945,-2.1069,0.2012,2.2529,-0.0429,29.31
15998,3853,1.0774,10.0844,-2.1548,0.2198,2.2324,-0.0333,29.3
16008,1410,1.3384,10.0365,-2.1021,0.194,2.177,-0.0213,29.31
16018,1798,1.4748,10.0533,-2.047,0.1335,2.0875,-0.0053,29.31
16028,1921,1.3886,10.1299,-1.9609,0.0552,1.9801,0.0195,29.31
16038,1904,1.0965,10.1778,-1.9273,-0.0221,1.8914,0.0437,29.31
16048,1895,0.5962,10.3214,-1.8316,-0.0845,1.857,0.0546,29.31
16058,1838,0.0024,10.5919,-1.6352,-0.1228,1.8708,0.0429,29.32
16068,1872,-0.6081,11.0325,-1.3838,-0.1428,1.9007,0.0171,29.33
16078,1889,-1.1444,11.5041,-1.1109,-0.1407,1.9017,-0.0128,29.31
16088,1857,-1.5754,11.9519,-0.8428,-0.1228,1.8599,-0.0421,29.3
16098,2011,-1.9369,12.323,-0.565,-0.0975,1.773,-0.0624,29.31
16108,2176,-2.138,12.4882,-0.3017,-0.0605,1.6936,-0.0711,29.31
16118,1972,-2.1787,12.3804,0.0168,0.0011,1.6585,-0.0775,29.32
16128,1751,-2.1332,11.9854,0.2179,0.0813,1.6931,-0.0791,29.31
16138,1937,-1.9417,11.3318,0.3807,0.1506,1.789,-0.0741,29.32
16148,1968,-1.6113,10.4148,0.644,0.1911,1.8644,-0.0722,29.31
16158,1971,-1.166,9.5193,1.0151,0.1689,1.8727,-0.0685,29.32
16168,1941,-0.7949,8.7843,1.4748,0.0733,1.8066,-0.0418,29.32
16178,2065,-0.7183,8.1547,1.81,-0.0861,1.683,0.0003,29.29
16188,2038,-0.8787,7.762,1.9537,-0.2902,1.5657,0.0456,29.31
16192,2206,-1.0223,7.6662,1.9728,-0.3725,1.5324,0.0663,29.31
16202,2033,-1.3455,7.5346,2.0039,-0.5407,1.4997,0.1138,29.3
16212,1949,-1.6664,7.4627,2.0973,-0.6273,1.5266,0.1276,29.29
16222,1857,-2.0327,7.3263,2.3008,-0.6257,1.6174,0.093,29.3
16232,1865,-2.4421,7.1754,2.5857,-0.5604,1.7685,0.04,29.31
16242,1982,-2.6743,6.936,2.7007,-0.4724,1.9604,-0.0051,29.31
16252,1905,-2.8108,6.6319,2.5355,-0.408,2.1416,-0.0426,29.31
16262,1878,-2.7533,6.4093,2.1859,-0.3914,2.2878,-0.0829,29.29
16272,1808,-2.5522,6.5793,1.7573,-0.4325,2.3976,-0.1167,29.29
16282,1871,-2.1955,7.1228,1.3431,-0.4887,2.4805,-0.1455,29.3
16292,1791,-1.8268,8.2001,1.142,-0.5188,2.557,-0.1596,29.31
16302,1798,-1.3838,9.3015,1.0918,-0.473,2.6255,-0.1631,29.31
16312,1775,-0.9529,10.3621,1.0989,-0.3477,2.6782,-0.1833,29.31
16322,1936,-0.656,11.1091,1.0511,-0.1956,2.7035,-0.2252,29.3
16332,1819,-0.4717,11.4491,0.9481,-0.0927,2.7011,-0.2633,29.3
16342,1837,-0.4166,11.3605,0.8475,-0.0917,2.6678,-0.2699,29.3
16352,1958,-0.3663,11.0588,0.7925,-0.203,2.5929,-0.2268,29.31
16362,1917,-0.3424,10.7117,0.826,-0.3749,2.4706,-0.1516,29.32
16372,1904,-0.3567,10.5321,0.9218,-0.5553,2.3244,-0.0605,29.3
16382,1901,-0.4645,10.5082,1.1037,-0.6936,2.1999,0.0242,29.32
16392,1900,-0.68,10.6063,1.2809,-0.7592,2.133,0.0885,29.32
16402,2032,-0.8667,10.6159,1.3072,-0.7405,2.1152,0.133,29.31
16412,1869,-1.0223,10.5656,1.1085,-0.663,2.1218,0.1609,29.31
16422,1869,-1.142,10.386,0.8236,-0.5804,2.121,0.1729,29.31
16432,1982,-1.1947,10.0963,0.4214,-0.4967,2.0973,0.1828,29.29
16442,1998,-1.1732,9.7683,0.0575,-0.4333,2.059,0.1951,29.3
16452,1954,-1.1013,9.4427,-0.2298,-0.3957,2.0323,0.2054,29.31
16462,1915,-1.008,9.1674,-0.3831,-0.3792,2.0294,0.2137,29.31
16472,2002,-0.905,8.9663,-0.5291,-0.3733,2.036,0.2214,29.31
16482,1936,-0.8308,8.8992,-0.6273,-0.3824,2.0235,0.2228,29.31
16492,1948,-0.7901,8.8585,-0.6536,-0.381,1.9774,0.2252,29.3
16502,2117,-0.7638,8.8585,-0.7494,-0.3611,1.8996,0.2204,29.3
16512,2100,-0.7805,8.8394,-0.8428,-0.3224,1.8069,0.2022,29.32
16522,2149,-0.6823,8.7197,-1.0654,-0.2649,1.7176,0.178,29.31
16532,2257,-0.5124,8.6048,-1.2498,-0.2393,1.6518,0.1367,29.31
16542,2211,-0.5746,8.5736,-1.1923,-0.2569,1.5492,0.0834,29.31
16552,2126,-0.644,8.4779,-1.1636,-0.2611,1.4474,0.0629,29.3
16562,1959,-0.7997,8.4874,-1.1851,-0.2947,1.3392,0.0533,29.31
16572,1874,-0.929,8.5736,-1.1157,-0.3259,1.2175,0.0517,29.31
16582,1887,-0.9768,8.5665,-1.2234,-0.3328,1.0856,0.0496,29.33
16586,1851,-1.008,8.5425,-1.2689,-0.3341,1.0293,0.0493,29.32
16596,1983,-1.1253,8.4276,-1.3288,-0.3435,0.8956,0.0509,29.32
16606,1966,-1.2905,8.3007,-1.2881,-0.3722,0.7946,0.0701,29.31
16616,1948,-1.5179,8.1427,-1.1372,-0.4234,0.7285,0.1021,29.3
16626,1985,-1.7382,7.9871,-1.0534,-0.5017,0.6952,0.141,29.32
16636,1865,-1.8699,7.8458,-0.9553,-0.587,0.6616,0.1841,29.32
16646,1379,-2.0351,7.8697,-0.8499,-0.6302,0.6323,0.2286,29.31
16656,3198,-2.1476,8.0637,-0.7446,-0.6161,0.619,0.2697,29.31
16666,4095,-2.1308,8.3294,-0.6871,-0.5534,0.631,0.308,29.33
16676,4095,-1.9728,8.5904,-0.6393,-0.4607,0.6651,0.3387,29.3
16686,2318,-1.7406,8.7915,-0.6009,-0.3667,0.7064,0.3635,29.31
16696,1662,-1.5754,9.0381,-0.6464,-0.2934,0.7189,0.3861,29.32
16706,2057,-1.6999,9.5098,-0.6752,-0.2388,0.7059,0.4218,29.31
16716,2005,-2.0734,10.0748,-0.7446,-0.1873,0.7173,0.4583,29.32
16726,1929,-2.4301,10.6853,-0.8523,-0.1085,0.7706,0.4764,29.32
16736,1995,-2.5402,11.2743,-0.9385,0.041,0.8175,0.4708,29.31
16746,2085,-2.3511,11.631,-1.0942,0.2561,0.846,0.4533,29.31
16756,2083,-1.9656,11.7747,-1.1947,0.4572,0.9022,0.4338,29.32
16766,2086,-1.4533,11.9399,-1.1229,0.5622,1.0283,0.4104,29.31
16776,2270,-0.9409,12.402,-0.7159,0.5521,1.2292,0.3816,29.32
16786,2223,-0.5219,13.0221,0.17,0.4397,1.4424,0.3794,29.31
16796,2195,-0.1963,13.4482,1.3958,0.2518,1.5274,0.4181,29.29
16806,2269,-0.0168,13.5272,2.6097,0.0128,1.3931,0.481,29.32
16816,2246,0.012,13.3453,3.237,-0.2406,1.0528,0.5164,29.31
16826,2301,-0.1149,12.9957,2.9592,-0.4471,0.6142,0.4919,29.32
16836,2242,-0.5578,12.5815,2.0255,-0.5249,0.2086,0.4048,29.33
16846,2316,-1.2019,12.1362,0.7853,-0.4631,-0.0504,0.2814,29.33
16856,2298,-1.7789,11.6023,-0.249,-0.3064,-0.0994,0.1601,29.32
16866,2295,-2.0686,10.8697,-0.5459,-0.1119,0.0224,0.0741,29.34
16876,2284,-1.901,9.9288,-0.2346,0.0573,0.2206,0.0418,29.33
16886,2265,-1.5395,8.9902,0.2945,0.1474,0.3808,0.0397,29.34
16896,2138,-1.2689,8.1642,0.7805,0.1428,0.4525,0.0498,29.32
16906,2160,-1.0989,7.4819,1.2737,0.0727,0.4538,0.0624,29.32
16916,2107,-1.087,6.9001,1.7813,-0.0242,0.4202,0.0661,29.32
16926,1941,-1.0295,6.4404,2.3583,-0.1354,0.3888,0.065,29.32
16936,1981,-0.9505,5.9927,3.0382,-0.234,0.3736,0.0549,29.32
16946,1950,-0.9026,5.7197,3.723,-0.2817,0.3749,0.0402,29.32
16956,1866,-0.7374,5.5498,4.2497,-0.3038,0.3714,0.0429,29.3
16966,1891,-0.6967,5.521,4.4053,-0.3533,0.376,0.0663,29.3
16976,1781,-0.6129,5.6072,4.2737,-0.4583,0.3997,0.1215,29.32
16980,1795,-0.577,5.6838,4.1755,-0.5065,0.4197,0.1442,29.32
16990,1879,-0.6584,6.1052,3.7086,-0.6177,0.4762,0.1895,29.31
17000,1903,-0.8428,6.8594,2.9353,-0.7115,0.5391,0.2302,29.32
17010,1821,-1.1301,7.8817,2.1524,-0.7663,0.6211,0.2705,29.32
17020,1973,-1.245,9.0429,1.5993,-0.7349,0.7237,0.2854,29.32
17030,1993,-1.4365,10.3765,1.5586,-0.6121,0.806,0.251,29.32
17040,1946,-1.4964,11.4658,1.7119,-0.3912,0.8884,0.1964,29.32
17050,1967,-1.4509,12.2535,1.6975,-0.1354,0.9875,0.1135,29.31
17060,2065,-1.2091,12.6007,1.6305,0.0829,1.1101,0.0144,29.31
17070,1968,-0.9481,12.5049,1.8507,0.2308,1.2353,-0.0679,29.32
17080,1921,-0.4741,11.8202,1.9848,0.3347,1.3214,-0.0797,29.31
17090,2041,0.0383,10.884,1.98,0.3648,1.339,-0.0432,29.32
17100,1971,0.5986,9.8857,1.8962,0.2974,1.2633,0.0288,29.31
17110,1881,1.0295,8.9399,1.8124,0.1495,1.1111,0.0882,29.3
17120,2091,1.3024,8.1738,1.6424,-0.0594,0.9553,0.1319,29.31
17130,2064,1.5299,7.7165,1.3743,-0.2814,0.8375,0.1681,29.32
17140,1774,1.6233,7.5896,1.1349,-0.4495,0.7184,0.1801,29.32
17150,1936,1.4796,7.8099,1.0367,-0.4986,0.5774,0.1623,29.31
17160,2035,0.9194,8.1211,0.9673,-0.4255,0.474,0.1498,29.29
17170,1891,0.1389,8.3414,0.9242,-0.3134,0.4823,0.1442,29.3
17180,1877,-0.5914,8.406,0.8811,-0.2409,0.5947,0.1338,29.31
17190,2179,-1.154,8.3941,0.8906,-0.2257,0.7541,0.134,29.33
17200,2237,-1.5658,8.4013,0.9409,-0.2481,0.898,0.1529,29.31
17210,2181,-1.8747,8.4276,1.1516,-0.283,0.9931,0.186,29.32
17220,2261,-2.0949,8.5377,1.3431,-0.2955,1.0621,0.2252,29.33
17230,2183,-2.071,8.6694,1.3216,-0.2982,1.1375,0.2422,29.32
17240,2228,-1.8794,8.7963,1.3216,-0.287,1.2177,0.2358,29.32
17250,2069,-1.5347,8.837,1.3144,-0.2475,1.2633,0.2105,29.33
17260,1860,-1.1971,8.8274,1.2977,-0.178,1.2777,0.1777,29.33
17270,1934,-0.8404,8.837,1.1995,-0.109,1.3046,0.1362,29.33
17280,1872,-0.5076,8.8202,1.1037,-0.0368,1.3672,0.1055,29.33
17290,1872,-0.1149,8.7676,1.1612,0.0432,1.4477,0.0906,29.32
17300,1881,0.2586,8.6574,1.1516,0.1186,1.5018,0.0885,29.33
17310,1849,0.6201,8.5234,1.0702,0.1559,1.4943,0.0935,29.33
17320,1902,0.8356,8.4108,0.8835,0.1258,1.424,0.1039,29.31
17330,1493,0.8835,8.4156,0.6129,0.0312,1.315,0.1226,29.32
17340,1503,0.7733,8.6048,0.3519,-0.0946,1.193,0.1436,29.32
17350,4095,0.51,8.9136,0.1963,-0.1919,1.0888,0.1593,29.34
17360,4095,0.1053,9.2129,0.103,-0.2116,1.0392,0.1615,29.33
17370,4095,-0.2897,9.4212,0.1053,-0.1415,1.0658,0.1529,29.33
17374,3136,-0.4334,9.4739,0.1077,-0.0946,1.096,0.1514,29.33
17384,1279,-0.7254,9.3494,0.1413,0.0429,1.1967,0.1482,29.32
17394,1748,-0.8428,9.0333,0.1413,0.1537,1.3033,0.1474,29.32
17404,1719,-0.7805,8.6335,0.1125,0.194,1.388,0.1474,29.32
17414,1739,-0.5507,8.3677,0.1389,0.1633,1.4288,0.1404,29.32
17424,1751,-0.261,8.3821,0.3783,0.0981,1.4272,0.1367,29.31
17434,1740,0.0982,8.5832,0.4501,0.0277,1.3872,0.1378,29.32
17444,1745,0.4334,8.9807,0.3304,-0.036,1.3243,0.1452,29.32
17454,1739,0.6225,9.402,0.0814,-0.0727,1.2566,0.154,29.32
17464,1781,0.5914,9.8617,-0.1197,-0.0693,1.1938,0.1596,29.31
17474,1823,0.3783,10.3741,-0.237,-0.0248,1.154,0.1641,29.33
17484,1822,0.1437,10.8673,-0.4717,0.0533,1.1532,0.1633,29.34
17494,1863,-0.0694,11.2527,-0.7925,0.1426,1.1767,0.1412,29.33
17504,1843,-0.2035,11.3916,-1.1013,0.2118,1.1954,0.0941,29.33
17514,1975,-0.2442,11.248,-1.3503,0.2486,1.1876,0.0554,29.32
17524,1936,-0.2107,10.8314,-1.4724,0.2635,1.1327,0.0576,29.32
17534,1986,-0.2825,10.41,-1.5203,0.2395,1.0488,0.0885,29.32
17544,2030,-0.3807,10.1825,-1.6831,0.1855,0.996,0.1362,29.33
17554,1983,-0.4238,10.252,-1.7095,0.1388,0.9926,0.1865,29.32
17564,2044,-0.3639,10.6159,-1.5012,0.1247,1.0296,0.2065,29.32
17574,2017,-0.1987,11.2695,-1.1851,0.1761,1.0738,0.1764,29.33
17584,1997,0,12.1769,-0.838,0.3096,1.0818,0.1053,29.34
17594,1895,0.0718,12.9933,-0.656,0.4956,1.0307,0.0157,29.33
17604,1904,-0.0838,13.532,-0.656,0.6853,0.9196,-0.0442,29.34
17614,1897,-0.3496,13.4482,-0.3926,0.8194,0.8015,-0.0496,29.34
17624,1842,-0.5986,13.1442,-0.0335,0.8284,0.7144,-0.0163,29.34
17634,1738,-0.7422,12.8569,0.4094,0.6646,0.6606,0.0429,29.32
17644,1645,-0.8571,12.5815,0.9266,0.3432,0.6145,0.1396,29.31
17654,1619,-1.0918,12.2439,1.743,-0.0674,0.5388,0.2515,29.32
17664,1641,-1.3503,11.9303,2.5953,-0.4842,0.4279,0.3525,29.34
17674,1584,-1.7071,11.5209,3.6416,-0.76,0.3333,0.4612,29.32
17684,1514,-2.1476,11.0181,4.4508,-0.8042,0.2958,0.5377,29.32
17694,1553,-2.7916,10.3597,4.9392,-0.6177,0.3499,0.5388,29.32
17704,1497,-3.6392,9.5481,4.8195,-0.2598,0.5412,0.5041,29.32
17714,1571,-4.4029,8.4084,4.2952,0.1503,0.8343,0.4367,29.34
17724,1630,-4.8985,7.1922,3.6631,0.5084,1.1527,0.3627,29.33
17734,1616,-4.8746,6.1076,2.8778,0.7418,1.3875,0.3088,29.34
17744,1649,-4.2258,5.2385,1.8771,0.8058,1.4381,0.2625,29.33
17754,1600,-3.2585,5.0087,0.6895,0.7051,1.323,0.2073,29.33
17764,1616,-2.1787,5.5881,-0.3112,0.5052,1.1594,0.1759,29.34
17768,1609,-1.7837,6.0071,-0.5435,0.4229,1.1205,0.1748,29.33
17778,1642,-0.7518,7.2209,-0.7183,0.2715,1.1159,0.1935,29.33
17788,1621,0.3926,8.4731,-0.5195,0.2086,1.1786,0.1943,29.33
17798,1666,1.4748,9.493,-0.1149,0.2174,1.2081,0.1911,29.33
17808,1699,2.4732,10.0844,0.2442,0.2457,1.1538,0.186,29.32
17818,1681,3.2274,10.1227,0.6752,0.203,1.0115,0.1607,29.34
17828,1622,3.6105,9.8521,1.2833,0.0805,0.7618,0.1266,29.33
17838,1631,3.6751,9.5146,1.9321,-0.1239,0.4106,0.0911,29.35
17848,1680,3.3926,9.3254,2.478,-0.3613,-0.0386,0.0847,29.35
17858,1597,2.7078,9.3182,2.5833,-0.5772,-0.5369,0.0959,29.34
17868,1712,1.6185,9.5217,2.1189,-0.6976,-1.0006,0.1132,29.33
17878,1717,0.3519,9.8521,1.2689,-0.6757,-1.3091,0.1258,29.34
17888,1767,-0.8475,10.3358,0.4094,-0.5023,-1.3917,0.1268,29.33
17898,1749,-1.7789,10.6997,-0.2729,-0.1897,-1.2692,0.1194,29.34
17908,1906,-2.2051,10.7907,-0.7901,0.1969,-1.0192,0.0565,29.34
17918,2016,-2.1524,10.398,-0.9744,0.5233,-0.7594,-0.0354,29.33
17928,1869,-1.8435,9.6367,-0.8332,0.6891,-0.586,-0.1282,29.34
17938,1711,-1.5897,8.8035,-0.5435,0.6702,-0.514,-0.1897,29.34
17948,1581,-1.3072,8.1139,-0.2227,0.5249,-0.506,-0.2086,29.35
17958,1594,-1.1516,7.7237,0.0886,0.3182,-0.5177,-0.1857,29.35
17968,1533,-0.9313,7.5441,0.2658,0.1775,-0.5265,-0.1276,29.35
17978,1593,-0.6129,7.7452,0.0239,0.1607,-0.5836,-0.0679,29.34
17988,1590,-0.2849,8.102,-0.419,0.1348,-0.6158,-0.1007,29.34
17998,1564,-0.2203,8.2935,-0.5794,0.137,-0.6043,-0.1809,29.34
18008,1637,-0.2227,8.4084,-0.9098,0.2324,-0.5574,-0.2345,29.34
18018,1392,-0.182,8.4228,-1.2833,0.3179,-0.5071,-0.2545,29.34
18028,1101,-0.1341,8.3749,-1.4916,0.3219,-0.4754,-0.2571,29.34
18038,3704,0.0335,8.2001,-1.5682,0.2449,-0.4575,-0.2057,29.35
18048,4095,0.2562,7.932,-1.4796,0.1135,-0.4884,-0.134,29.33
18058,4095,0.3017,7.8243,-1.2761,-0.0189,-0.5825,-0.0698,29.35
18068,1262,0.1149,7.9033,-1.1229,-0.1127,-0.6947,-0.0035,29.34
18078,1350,-0.0982,8.1163,-1.1037,-0.1575,-0.7666,0.056,29.34
18088,1653,-0.2179,8.3725,-1.1325,-0.1482,-0.8084,0.0975,29.35
18098,1535,-0.3352,8.5784,-1.2498,-0.0834,-0.8356,0.1178,29.35
18108,1467,-0.5004,8.7101,-1.3719,0.004,-0.833,0.1218,29.33
18118,1634,-0.5195,8.6838,-1.5347,0.1026,-0.7906,0.1146,29.34
18128,1685,-0.7207,8.7245,-1.5347,0.1535,-0.7298,0.0973,29.34
18138,1659,-0.7063,8.6646,-1.5251,0.1977,-0.648,0.1218,29.35
18148,1659,-0.4884,8.5665,-1.5395,0.2116,-0.5668,0.1287,29.34
18158,1666,-0.2634,8.4228,-1.4126,0.1927,-0.5156,0.1316,29.33
18162,1634,-0.1867,8.3989,-1.3791,0.1751,-0.5055,0.1271,29.33
18172,1791,0.0527,8.4515,-1.3982,0.1247,-0.5007,0.113,29.34
18182,1814,-0.0024,8.5712,-1.1492,0.1114,-0.526,0.1191,29.34
18192,1762,-0.0766,8.7747,-1.0391,0.1439,-0.5564,0.1284,29.34
18202,1856,-0.1341,9.0477,-1.2091,0.1961,-0.5612,0.1148,29.35
18212,1904,-0.1173,9.3565,-1.3719,0.2494,-0.5393,0.0815,29.34
18222,1984,-0.1437,9.8521,-1.3384,0.2529,-0.5361,0.0328,29.34
18232,1857,-0.0168,10.3094,-1.3455,0.283,-0.5295,0.0677,29.36
18242,1913,0.5698,10.7476,-1.5921,0.3022,-0.4884,0.1196,29.35
18252,1933,1.4006,11.1306,-1.9513,0.2156,-0.4596,0.1692,29.35
18262,1947,2.2601,11.3437,-2.2386,0.0461,-0.5319,0.1964,29.35
18272,1882,2.8036,11.5496,-2.3439,-0.1063,-0.737,0.2014,29.36
18282,1825,2.8826,11.7819,-2.4157,-0.1943,-0.9835,0.1809,29.36
18292,1840,2.6887,11.8752,-2.3894,-0.1767,-1.1975,0.1511,29.35
18302,1818,2.399,11.9734,-2.2505,-0.0648,-1.3731,0.1007,29.34
18312,1750,2.047,12.0117,-1.7789,0.0738,-1.5063,0.0389,29.35
18322,1687,1.4629,11.8202,-0.8882,0.133,-1.5692,0.0112,29.35
18332,1613,0.7733,11.6598,-0.3567,-0.0067,-1.5226,0.0277,29.34
18342,1646,-0.0048,11.9159,-0.2705,-0.3757,-1.4112,0.1082,29.33
18352,1584,-0.6057,12.1865,-0.0862,-0.9172,-1.348,0.2241,29.34
18362,1596,-1.2522,12.5169,0.5387,-1.4682,-1.3939,0.3083,29.34
18372,1569,-1.9824,13.046,1.3958,-1.8543,-1.5015,0.3416,29.37
18382,1587,-2.5187,13.7571,1.9992,-1.9351,-1.5284,0.2931,29.35
18392,1591,-3.0215,14.4562,2.7174,-1.5974,-1.4152,0.1609,29.35
18402,1571,-3.4069,14.7291,3.1603,-0.8364,-1.173,-0.004,29.35
18412,1589,-3.7781,14.1042,3.2417,0.1207,-0.8071,-0.1977,29.35
18422,1571,-3.8331,12.6366,3.1077,0.9896,-0.3392,-0.3635,29.35
18432,1571,-3.1603,10.7356,2.7246,1.6038,0.1415,-0.4983,29.35
18442,1606,-2.0375,8.8322,2.0063,1.8847,0.4815,-0.5769,29.35
18452,1604,-0.4812,6.8666,1.1372,1.8663,0.5649,-0.6336,29.36
18462,1517,1.0582,5.0182,0.091,1.5188,0.3515,-0.6728,29.35
18472,1575,2.4229,3.5889,-0.1389,0.8892,-0.089,-0.647,29.34
18482,1565,3.5458,3.0358,0.7039,0.166,-0.6654,-0.5228,29.34
18492,1581,4.0797,3.2729,1.9561,-0.4612,-1.3065,-0.3531,29.34
18502,1562,3.474,4.276,2.8994,-0.9579,-1.9556,-0.1732,29.35
18512,1648,2.0997,5.6695,3.3543,-1.2905,-2.4925,0.0147,29.35
18522,1653,0.3472,7.1802,3.3734,-1.392,-2.7819,0.1639,29.35
18532,1646,-1.5562,8.7963,3.0957,-1.2812,-2.7121,0.2225,29.37
18542,1648,-3.395,10.3382,2.727,-0.9659,-2.2769,0.2012,29.36
18552,1710,-5.1739,11.8489,1.9848,-0.5193,-1.5852,0.15,29.36
18556,1747,-5.7509,12.3565,1.6185,-0.3352,-1.2734,0.1375,29.37
18566,1842,-6.4955,12.9526,0.8978,0.0544,-0.5025,0.1095,29.35
18576,1824,-6.3255,12.6845,0.644,0.3155,0.1833,0.0091,29.34
18586,1936,-5.7389,12.1458,0.7829,0.4804,0.6859,-0.1223,29.35
18596,1968,-4.7477,11.3916,0.9337,0.5958,0.9654,-0.1857,29.34
18606,1913,-3.486,10.4794,1.063,0.615,1.0589,-0.1905,29.34
18616,1743,-2.2458,9.6414,1.3216,0.5732,1.0203,-0.1529,29.35
18626,1613,-1.0247,8.9567,1.5155,0.5081,0.8863,-0.0767,29.37
18636,1559,0.0527,8.4156,1.403,0.3773,0.7184,0.0072,29.34
18646,1622,0.8763,8.0014,1.1564,0.1647,0.5556,0.0794,29.36
18656,1638,1.3719,7.6614,0.7422,-0.0823,0.3944,0.134,29.36
18666,1661,1.6328,7.4795,0.1389,-0.3435,0.23,0.1559,29.35
18676,1677,1.5395,7.422,-0.3735,-0.5558,0.0757,0.1567,29.35
18686,1717,1.2067,7.4627,-0.6752,-0.6606,-0.0421,0.15,29.35
18696,1405,0.7542,7.5609,-0.8045,-0.6611,-0.0807,0.1383,29.35
18706,1395,0.2825,7.6806,-0.7877,-0.5923,-0.037,0.1186,29.34
18716,4095,-0.0503,7.8243,-0.5698,-0.477,0.0679,0.1111,29.37
18726,4095,-0.3136,7.9511,-0.3112,-0.3421,0.2009,0.1108,29.36
18736,4095,-0.3831,8.0325,-0.0287,-0.2148,0.3371,0.1332,29.37
18746,1139,-0.316,8.0972,0.1508,-0.1159,0.4407,0.1522,29.34
18756,1662,-0.1748,8.1882,0.328,-0.041,0.5172,0.1812,29.35
18766,1825,0.0048,8.2815,0.2227,-0.0258,0.5745,0.1974,29.36
18776,1753,0.2059,8.3869,0.1484,-0.0645,0.6049,0.1964,29.36
18786,1824,0.3711,8.5473,0.0838,-0.1108,0.6214,0.182,29.34
18796,1895,0.5124,8.7532,0.1628,-0.158,0.6075,0.1386,29.35
18806,1877,0.6177,9.1243,0.1101,-0.1785,0.5508,0.0456,29.34
18816,1909,0.5578,9.4499,-0.0814,-0.1399,0.5135,-0.0232,29.37
18826,1933,0.4621,9.5385,-0.4405,-0.0754,0.518,-0.0632,29.35
18836,1971,0.3974,9.517,-0.7638,-0.0059,0.5652,-0.0853,29.35
18846,2027,0.565,9.3589,-0.9481,0.0418,0.6153,-0.097,29.34
18856,2055,0.6632,9.1482,-1.075,0.0946,0.6507,-0.1092,29.34
18866,2068,0.7661,8.9136,-1.1803,0.1519,0.6888,-0.1135,29.35
18876,2106,0.8643,8.667,-1.1899,0.2174,0.7298,-0.1074,29.35
18886,2150,0.9266,8.5784,-1.0774,0.2832,0.7618,-0.0877,29.35
18896,2180,1.0487,8.6479,-1.1013,0.3469,0.7738,-0.0536,29.36
18906,2179,1.2258,8.7125,-1.2905,0.3936,0.7562,-0.0248,29.37
18916,2199,1.312,9.0788,-1.5467,0.4287,0.7109,0.0184,29.37
18926,2235,1.4413,9.3709,-1.6472,0.4533,0.6281,0.0834,29.35
18936,2226,1.2857,9.6917,-1.8555,0.4277,0.5396,0.1916,29.35
18946,2218,1.1157,10.0413,-1.901,0.3126,0.4799,0.3499,29.35
18950,2192,1.075,10.1754,-1.9297,0.2401,0.4607,0.4064,29.36
18960,2131,0.8715,10.5728,-1.7214,0.0378,0.4285,0.5444,29.36
18970,2120,0.6991,10.6973,-1.2881,-0.1474,0.3605,0.6009,29.35
18980,2112,0.2801,11.0205,-0.6919,-0.3003,0.2673,0.5609,29.37
18990,1995,-0.1676,11.2647,-0.0718,-0.3712,0.1164,0.4599,29.37
19000,1975,-0.6584,11.5808,0.261,-0.3198,-0.0083,0.3072,29.37
19010,1913,-1.1013,11.8944,0.2514,-0.1482,-0.0109,0.1519,29.36
19020,1904,-1.4653,12.1817,0.3065,0.126,0.1346,0.0845,29.35
19030,1896,-1.2641,12.56,0.34,0.4306,0.3877,0.0997,29.35
19040,1863,-0.6273,13.0101,0.1437,0.6598,0.6712,0.1295,29.37
19050,1874,0.1053,13.3501,-0.2394,0.7352,0.8439,0.126,29.36
19060,1879,0.5842,13.6948,-0.6488,0.6933,0.8274,0.1655,29.38
19070,1903,1.3216,13.5368,-1.0894,0.6091,0.6523,0.2022,29.37
19080,1883,1.9824,12.9431,-1.2546,0.4964,0.4623,0.1471,29.37
19090,1919,2.0351,12.2439,-0.8835,0.3014,0.3485,0.0799,29.37
19100,1931,1.7957,11.2527,-0.1293,0.0131,0.2926,0.1122,29.38
19110,1922,1.5299,10.2232,1.0175,-0.3555,0.215,0.2038,29.37
19120,1881,1.1085,9.232,2.2721,-0.7405,0.0522,0.299,29.36
19130,1899,0.2346,8.406,3.5865,-1.0509,-0.1958,0.3848,29.37
19140,1847,-1.1708,7.8027,4.5274,-1.2127,-0.4447,0.465,29.38
19150,1920,-2.9712,7.4196,4.9823,-1.1911,-0.5625,0.5409,29.36
19160,1909,-4.7142,7.276,4.8339,-1.0096,-0.4474,0.5753,29.37
19170,1895,-6.0023,7.5322,3.9576,-0.7274,-0.085,0.5433,29.35
19180,1939,-6.5577,8.3127,2.478,-0.3691,0.4247,0.4618,29.37
19190,1953,-6.1986,9.4308,0.5052,0.0746,0.9118,0.3613,29.37
19200,1979,-4.8435,10.6518,-1.3479,0.5838,1.2023,0.238,29.38
19210,2000,-2.9185,11.6286,-2.2194,1.0976,1.2806,0.0919,29.37
19220,2065,-1.0558,12.1506,-1.9537,1.5092,1.2764,-0.0536,29.36
19230,2160,0.4262,12.1003,-1.2139,1.6899,1.3805,-0.1322,29.37
19240,2271,1.664,11.5089,-0.6584,1.582,1.6292,-0.1623,29.38
19250,2311,2.8659,10.5465,-0.0646,1.2153,1.8692,-0.1524,29.37
19260,2325,3.9504,9.5481,0.7111,0.6933,1.8679,-0.0933,29.38
19270,2199,4.8243,8.7317,1.4533,0.1244,1.5503,-0.0056,29.37
19280,1922,5.2194,8.1906,2.059,-0.3816,0.988,0.0874,29.37
19290,1877,5.035,7.944,2.2841,-0.744,0.315,0.1711,29.38
19300,1904,4.3335,8.0876,1.9513,-0.93,-0.3285,0.2276,29.38
19310,1890,3.1173,8.5042,1.0558,-0.9297,-0.826,0.2598,29.38
19320,1939,1.7597,9.074,-0.0718,-0.7586,-1.0928,0.2603,29.37
19330,1968,0.5531,9.493,-1.0774,-0.4525,-1.117,0.2025,29.38
19340,1969,-0.565,9.7205,-1.7765,-0.0735,-0.9473,0.0746,29.38
19344,1967,-0.9361,9.7252,-1.9393,0.0714,-0.8412,0.0248,29.39
19354,1795,-1.6065,9.505,-2.2075,0.3568,-0.5281,-0.0629,29.39
19364,1395,-1.7406,8.8178,-2.162,0.5041,-0.2358,-0.1111,29.37
19374,3257,-1.3695,7.9057,-1.8435,0.5212,-0.0456,-0.1585,29.37
19384,4095,-0.7925,7.1419,-1.5347,0.4271,0.0099,-0.2076,29.37
19394,4095,-0.2274,6.6415,-1.2378,0.2547,-0.0285,-0.226,29.36
19404,2059,0.3831,6.3973,-1.0942,0.0677,-0.1204,-0.2166,29.37
19414,1518,0.8452,6.4332,-1.1013,-0.0829,-0.2385,-0.1956,29.35
19424,1941,1.1875,6.6702,-1.2977,-0.1735,-0.3595,-0.1681,29.36
19434,1875,1.3408,6.9983,-1.5347,-0.1921,-0.4708,-0.15,29.36
19444,1875,1.2617,7.2449,-1.7382,-0.1431,-0.5577,-0.1407,29.36
19454,1879,1.0391,7.3861,-1.8052,-0.0541,-0.6009,-0.1362,29.37
19464,1936,0.7063,7.4962,-1.8627,0.0368,-0.6118,-0.1308,29.36
19474,1969,0.3328,7.5178,-1.8842,0.0941,-0.6187,-0.1223,29.35
19484,1937,-0.0527,7.5178,-1.9537,0.1058,-0.6227,-0.0986,29.35
19494,2021,-0.3376,7.4915,-1.9441,0.0871,-0.6139,-0.0679,29.37
19504,2032,-0.5866,7.6016,-1.834,0.049,-0.5985,-0.032,29.36
19514,1997,-0.6871,7.7907,-1.7693,0.0096,-0.5716,0.0149,29.37
19524,2117,-0.6847,8.169,-1.7573,-0.0101,-0.526,0.0573,29.38
19534,2141,-0.5267,8.6215,-1.8938,0.0029,-0.4791,0.0866,29.36
19544,2139,-0.2873,9.1889,-1.9896,0.061,-0.4485,0.0903,29.38
19554,2131,0.0096,9.7109,-1.9968,0.1721,-0.441,0.0869,29.37
19564,2207,0.1508,10.082,-1.9417,0.2825,-0.4466,0.0837,29.37
19574,2202,0.2322,10.2137,-1.8316,0.3099,-0.4266,0.0743,29.37
