time, ECG, accX, accY, accZ, gyroX, gyroY, gyroZ, temp
2048,2007,3.342306,8.544906,1.872266,0.367718,0.368784,0.171602,21.571177
2058,1979,3.315969,8.643068,1.84593,0.314159,0.203577,0.089265,21.571177
2068,1959,3.184288,8.66701,1.848324,0.28245,0.035706,0.009593,21.588823
2078,1717,2.964022,8.65025,1.821988,0.256603,-0.102855,-0.065017,21.58
2088,1519,2.693477,8.66701,1.850718,0.227825,-0.205976,-0.133764,21.585882
2098,1694,2.401384,8.74123,1.908179,0.182793,-0.285648,-0.196649,21.571177
2108,1664,2.193089,8.875306,2.020706,0.119908,-0.355194,-0.244346,21.585882
2118,1677,1.989582,8.987833,2.171541,0.057289,-0.428472,-0.277387,21.568235
2128,1694,1.810017,9.13388,2.336741,0.025847,-0.51747,-0.300303,21.574118
2138,1730,1.608904,9.263166,2.442086,0.045565,-0.620058,-0.314692,21.585882
2148,1712,1.398214,9.414001,2.408567,0.104986,-0.717317,-0.310695,21.568235
2158,1843,1.221043,9.548077,2.269703,0.181461,-0.780735,-0.276588,21.574118
2168,1755,1.113304,9.615114,2.106898,0.267262,-0.794058,-0.219832,21.582941
2178,1434,1.089362,9.548077,2.061408,0.345868,-0.766346,-0.154015,21.588823
2188,1638,1.151611,9.437943,2.054225,0.402891,-0.718116,-0.086067,21.577059
2198,4095,1.225831,9.25359,2.008735,0.442061,-0.661893,-0.013057,21.588823
2208,4095,1.323994,9.081207,1.982399,0.462312,-0.610199,0.058355,21.577059
2218,3818,1.403002,8.901642,1.946486,0.456717,-0.567832,0.126303,21.58
2228,1210,1.54426,8.777143,1.872266,0.414882,-0.531326,0.188922,21.58
2238,1682,1.716643,8.74123,1.788469,0.345602,-0.4791,0.240083,21.609411
2248,1697,1.92015,8.798691,1.75495,0.270992,-0.398628,0.276588,21.600588
2258,1691,2.090138,8.954314,1.769315,0.206242,-0.289645,0.300303,21.58
2268,1679,2.178724,9.217676,1.723825,0.159877,-0.178263,0.317623,21.58
2278,1734,2.236184,9.636662,1.637634,0.132698,-0.069813,0.347734,21.591764
2288,1904,2.248155,10.158598,1.446098,0.133231,0.057289,0.39996,21.597647
2298,1680,2.267309,10.627861,1.024718,0.18679,0.26593,0.469507,21.597647
2308,1778,2.32477,10.819398,0.474052,0.311495,0.593678,0.531859,21.585882
2318,1845,2.41575,10.733206,0.126893,0.476435,0.998435,0.581155,21.603529
2328,1839,2.631228,10.462662,0.141258,0.638178,1.374413,0.619792,21.615294
2338,1853,2.999935,10.15381,0.414197,0.779669,1.59158,0.671485,21.624117
2348,1885,3.576937,9.902418,0.61531,0.921427,1.584119,0.736502,21.60647
2379,2131,5.370194,8.559271,0.280122,1.306732,0.80525,0.758619,21.618235
2389,2011,5.542577,8.073248,-0.150835,1.303801,0.563835,0.677081,21.609411
2399,1983,5.501875,7.637504,-0.565032,1.184692,0.392499,0.564101,21.594706
2409,2143,5.257667,7.369353,-0.871489,0.962196,0.255804,0.437531,21.609411
2419,2169,4.91769,7.33344,-1.201889,0.640309,0.134031,0.318956,21.60647
2429,2183,4.685453,7.338228,-1.25935,0.239017,0.016787,0.234753,21.615294
2439,2311,4.620809,7.474698,-1.130063,-0.155614,-0.110848,0.172934,21.629999
2449,2343,4.716578,7.690176,-0.711078,-0.495887,-0.241149,0.14309,21.627058
2459,2160,4.862624,7.967903,-0.282516,-0.725311,-0.364787,0.131632,21.60647
2469,2258,5.020641,8.281544,0.095768,-0.822836,-0.45192,0.127902,21.609411
2479,2039,5.087678,8.573636,0.40462,-0.814309,-0.484162,0.119375,21.609411
2489,1935,5.011064,8.911219,0.605733,-0.736236,-0.476968,0.106585,21.612352
2499,1840,4.824317,9.220071,0.70629,-0.614729,-0.447124,0.102588,21.621176
2509,1867,4.666299,9.442732,0.792481,-0.471372,-0.403158,0.118043,21.627058
2519,1706,4.60405,9.497798,0.849942,-0.328015,-0.351997,0.151351,21.63294
2529,1678,4.606444,9.370906,0.921768,-0.189188,-0.287247,0.195051,21.621176
2539,1565,4.589684,9.222465,0.969652,-0.052227,-0.211571,0.235819,21.63294
2549,1617,4.570531,9.126697,0.811634,0.058355,-0.129234,0.275256,21.624117
2559,1695,4.498705,9.047688,0.620098,0.137761,-0.048763,0.312294,21.629999
2569,1666,4.46758,8.956709,0.454898,0.199314,0.022116,0.345069,21.60647
2579,1648,4.496311,8.839393,0.306458,0.245678,0.076475,0.377844,21.627058
2589,1772,4.58729,8.710106,0.198719,0.277121,0.110848,0.407155,21.63294
2599,1744,4.692636,8.542512,0.141258,0.289112,0.131899,0.426074,21.627058
2609,1627,4.786009,8.37013,0.043096,0.284315,0.148153,0.426074,21.63294
2619,1682,4.874595,8.209718,0.014365,0.270726,0.164141,0.404224,21.638824
2629,1712,4.953603,8.12592,-0.004788,0.250475,0.175599,0.374646,21.641766
2639,1677,4.999093,8.056489,0.02873,0.216368,0.178263,0.344536,21.638824
2649,1756,5.027823,8.008605,0.009577,0.169204,0.176398,0.31709,21.621176
2659,1753,5.051765,8.044518,-0.004788,0.123372,0.167605,0.300303,21.629999
2669,1758,5.058948,8.111555,-0.064643,0.09193,0.154815,0.302435,21.641766
2679,1744,5.080496,8.159439,-0.107739,0.0874,0.142824,0.31789,21.621176
2689,1728,5.185841,8.190564,-0.134075,0.096459,0.13936,0.333611,21.629999
2699,1620,5.319916,8.147469,-0.083797,0.10472,0.148153,0.336009,21.638824
2709,1610,5.355829,8.044518,-0.019154,0.117243,0.160677,0.325084,21.63294
2719,1712,5.377377,7.946355,0.019154,0.130034,0.163608,0.309896,21.638824
2729,1683,5.358223,7.896077,0.057461,0.127636,0.157479,0.297905,21.638824
2739,1696,5.312734,7.82904,0.071826,0.119642,0.145222,0.29604,21.635881
2749,1805,5.260061,7.831434,-0.019154,0.111914,0.137761,0.301369,21.638824
2759,1697,5.17387,7.838616,-0.179565,0.106319,0.15668,0.307764,21.641766
2769,1645,5.097255,7.869741,-0.308852,0.098591,0.199847,0.314692,21.644707
2779,1651,5.044583,7.965509,-0.366313,0.080738,0.260334,0.331213,21.650589
2789,1650,5.049371,8.015787,-0.306458,0.05276,0.313093,0.360524,21.627058
2799,1712,5.094861,8.082825,-0.179565,0.026646,0.335476,0.3909,21.63294
2809,1743,5.176264,8.140285,-0.076614,0.009593,0.326949,0.415149,21.644707
2819,1727,5.291186,8.149862,-0.023942,0.006662,0.30057,0.430337,21.644707
2829,1766,5.327099,8.118738,-0.026336,0.025047,0.285115,0.427406,21.638824
2839,1725,5.365406,8.111555,-0.059855,0.058089,0.280052,0.410885,21.63294
2849,1794,5.363012,8.046912,-0.067038,0.087133,0.284848,0.389302,21.644707
2859,1974,5.315128,7.946355,-0.126893,0.109516,0.295507,0.367452,21.647648
2869,1793,5.238513,7.855376,-0.105345,0.131632,0.307231,0.35173,21.659412
2879,1855,5.200206,7.73806,-0.095768,0.153749,0.320554,0.338674,21.650589
2889,1878,5.159505,7.682993,-0.11971,0.166006,0.333078,0.336542,21.647648
2899,1808,5.12838,7.694964,-0.093374,0.175332,0.344536,0.341338,21.618235
2909,1787,5.116409,7.706935,-0.071826,0.185991,0.348533,0.347201,21.63294
2919,1754,5.200206,7.735666,-0.11971,0.195051,0.353063,0.351198,21.644707
2929,1733,5.291186,7.726089,-0.07422,0.206242,0.366652,0.354662,21.641766
2939,1724,5.389348,7.702147,-0.086191,0.227559,0.391433,0.353063,21.644707
2949,1742,5.480328,7.661446,-0.086191,0.257936,0.431403,0.355461,21.641766
2959,1782,5.542577,7.639898,-0.158017,0.311228,0.477501,0.351997,21.644707
2969,1811,5.583278,7.632715,-0.169988,0.350132,0.533724,0.356793,21.644707
2979,1775,5.640739,7.613562,-0.201113,0.390101,0.579289,0.362922,21.638824
2989,1830,5.635951,7.580042,-0.23942,0.428472,0.615795,0.372781,21.647648
2999,1789,5.693412,7.582437,-0.265756,0.444726,0.641642,0.3917,21.659412
3009,1358,5.796362,7.536947,-0.323217,0.432735,0.666156,0.413283,21.662354
3019,2965,5.98311,7.510611,-0.356736,0.3917,0.694401,0.429005,21.668236
3029,4095,6.153099,7.505822,-0.423774,0.340006,0.727443,0.436466,21.659412
3039,4095,6.291962,7.491457,-0.543484,0.290711,0.763415,0.435666,21.671177
3049,1840,6.426037,7.455544,-0.636858,0.244346,0.793792,0.424475,21.665295
3059,1585,6.560112,7.417237,-0.679953,0.201179,0.811112,0.400227,21.656471
3069,1929,6.588843,7.331046,-0.718261,0.166806,0.811378,0.366652,21.656471
3079,1856,6.593631,7.208941,-0.797269,0.125237,0.803651,0.330147,21.641766
3089,1901,6.519411,6.981492,-0.76375,0.056757,0.794325,0.294175,21.668236
3099,2000,6.414066,6.739678,-0.596156,-0.033574,0.780735,0.258469,21.668236
3109,1763,6.294356,6.53617,-0.469264,-0.132965,0.779403,0.219565,21.656471
3119,1923,6.253655,6.430826,-0.395043,-0.225161,0.815375,0.183593,21.647648
3129,1958,6.296751,6.457162,-0.23942,-0.312294,0.888119,0.167338,21.644707
3139,1969,6.390124,6.59842,-0.100556,-0.397029,0.973654,0.182793,21.659412
3149,2032,6.562507,6.897695,-0.071826,-0.486827,1.060787,0.238217,21.677059
3159,2084,6.691794,6.969521,0.114922,-0.567565,1.124738,0.321087,21.677059
3169,2098,6.782773,6.943185,0.287304,-0.576358,1.121008,0.351997,21.662354
3179,2192,6.871359,6.931214,0.509965,-0.533991,1.061054,0.319222,21.659412
3189,2255,6.897695,6.876147,0.746991,-0.475902,0.964861,0.232089,21.682941
3199,2036,6.868965,6.840234,0.957681,-0.446058,0.886521,0.131632,21.671177
3209,2160,6.725313,6.804321,1.154005,-0.459381,0.850015,0.067681,21.662354
3219,2278,6.505046,6.773197,1.268927,-0.500683,0.830031,0.043167,21.665295
3229,2320,6.260838,6.777985,1.33357,-0.54758,0.823636,0.05276,21.650589
3239,2333,6.030994,6.782773,1.362301,-0.568364,0.819639,0.065283,21.668236
3249,2421,5.899313,6.849811,1.369483,-0.537721,0.824701,0.065017,21.656471
3259,2432,5.781997,6.967127,1.278504,-0.474303,0.859874,0.057023,21.656471
3269,2448,5.707777,7.000646,1.283292,-0.398894,0.927556,0.047697,21.677059
3279,2510,5.712565,7.029376,1.381454,-0.336276,1.007761,0.032508,21.677059
3289,2559,5.784391,6.962338,1.503559,-0.307764,1.084769,0.005862,21.68
3299,2320,5.896919,6.888118,1.716643,-0.314426,1.14792,-0.041035,21.685883
3309,2097,5.973533,6.773197,1.893813,-0.341338,1.194018,-0.10019,21.691765
3319,1997,5.980716,6.706159,2.087744,-0.370916,1.225994,-0.156147,21.694706
3330,1902,5.93762,6.636727,2.20506,-0.384505,1.23985,-0.18306,21.682941
3340,1834,5.875371,6.528988,2.293645,-0.387703,1.239583,-0.192119,21.688824
3350,1762,5.781997,6.370971,2.281674,-0.398628,1.227326,-0.196649,21.671177
3360,1785,5.65271,6.26802,2.276886,-0.439397,1.212671,-0.200646,21.68
3370,1707,5.513846,6.210559,2.272097,-0.533458,1.186824,-0.199847,21.688824
3380,1808,5.370194,6.196194,2.255338,-0.694401,1.146055,-0.196649,21.682941
3390,1776,5.207389,6.210559,2.300828,-0.898778,1.09223,-0.192386,21.688824
3400,1717,5.020641,6.224925,2.351106,-1.118876,1.023216,-0.189455,21.691765
3410,1747,4.84347,6.224925,2.477999,-1.330447,0.937149,-0.196116,21.685883
3420,1781,4.711789,6.220136,2.657564,-1.513773,0.83536,-0.202245,21.677059
3430,1781,4.666299,6.189012,2.887407,-1.653933,0.721047,-0.199314,21.685883
3440,1854,4.644751,6.282385,3.126827,-1.769044,0.594211,-0.177198,21.685883
3450,1774,4.673482,6.402095,3.394978,-1.881492,0.461779,-0.140959,21.691765
3460,1823,4.802769,6.524199,3.70383,-1.980882,0.332812,-0.100989,21.68
3470,1783,4.979939,6.653487,3.993528,-2.053626,0.220897,-0.074077,21.668236
3480,1815,5.190629,6.751649,4.343082,-2.089332,0.146288,-0.071945,21.677059
3490,1819,5.360618,6.856994,4.697424,-2.085602,0.104453,-0.102322,21.68
3500,1841,5.499481,6.991069,5.090073,-2.030444,0.093795,-0.145489,21.688824
3510,1816,5.621585,7.120356,5.451597,-1.921194,0.098858,-0.205176,21.68
3520,1877,5.738902,7.321469,5.762844,-1.754389,0.128968,-0.269127,21.700588
3530,1871,5.887342,7.603985,6.064513,-1.597176,0.171868,-0.310429,21.694706
3540,1839,6.066907,7.898471,6.349423,-1.458882,0.211305,-0.313093,21.68
3550,1837,6.234501,8.121132,6.710948,-1.312328,0.26593,-0.263265,21.688824
3560,1845,6.421249,8.192958,7.082048,-1.112747,0.323485,-0.155081,21.697647
3570,1841,6.627151,8.101978,7.410054,-0.849216,0.367452,-0.011191,21.700588
3580,1817,6.742072,7.762002,7.577648,-0.543317,0.365054,0.139093,21.709412
3590,1910,6.703765,7.371747,7.469909,-0.234753,0.289645,0.256337,21.700588
3600,1921,6.572083,7.098808,7.096414,-0.002665,0.201712,0.410086,21.694706
3610,1841,6.459556,6.658275,6.758832,0.135363,0.118309,0.575293,21.68
3620,1867,6.335058,6.253655,6.397307,0.186257,0.01732,0.693602,21.68
3630,1922,6.351817,5.95438,6.076484,0.14762,-0.056224,0.748493,21.682941
3640,1955,6.397307,5.741296,5.966351,0.041035,-0.101522,0.749825,21.688824
3650,1855,6.43322,5.600038,5.98311,-0.093528,-0.151084,0.694668,21.685883
3660,1923,6.526594,5.432444,6.071695,-0.227825,-0.22223,0.588882,21.677059
3670,1961,6.612785,5.434838,6.22253,-0.333877,-0.317357,0.433534,21.691765
3680,2062,6.730101,5.506664,6.406884,-0.409553,-0.433801,0.2606,21.700588
3690,2110,6.871359,5.633556,6.521805,-0.435133,-0.553709,0.106052,21.712353
3700,2114,6.98628,5.851429,6.469133,-0.398894,-0.637645,0.010658,21.724117
3710,2086,7.029376,6.035782,6.265626,-0.31256,-0.642974,-0.00906,21.697647
3720,1919,6.967127,6.117185,6.019023,-0.201979,-0.572095,0.037038,21.712353
3730,1936,6.770802,6.114791,5.822699,-0.095127,-0.472971,0.115112,21.697647
3740,1852,6.53617,6.0286,5.707777,-0.017853,-0.402625,0.191587,21.685883
3750,1862,6.270414,5.89213,5.588067,0.011191,-0.396496,0.237685,21.697647
3760,1936,6.002264,5.762844,5.477933,-0.000266,-0.454319,0.242481,21.685883
3770,1951,5.851429,5.600038,5.408502,-0.037838,-0.558772,0.215302,21.712353
3780,1933,5.849035,5.485116,5.430049,-0.075675,-0.689871,0.143357,21.709412
3790,1751,5.968745,5.427655,5.401319,-0.118842,-0.814842,0.042368,21.70647
3800,1818,6.208165,5.485116,5.32231,-0.173201,-0.892383,-0.054358,21.697647
3810,1888,6.421249,5.516241,5.188235,-0.237152,-0.896113,-0.116977,21.703529
3820,1533,6.562507,5.477933,5.073313,-0.302968,-0.822037,-0.142291,21.70647
3830,1861,6.560112,5.44202,4.857835,-0.374646,-0.683743,-0.113247,21.712353
3840,4095,6.452374,5.317522,4.668694,-0.463645,-0.511342,-0.033041,21.718235
3850,4095,6.270414,5.154716,4.546589,-0.571296,-0.350665,0.053825,21.721176
3860,3135,6.098032,5.001487,4.537012,-0.704793,-0.22223,0.111648,21.70647
3870,1329,5.930438,4.960786,4.58729,-0.869467,-0.129767,0.12657,21.727058
3880,1827,5.813122,5.00867,4.697424,-1.063985,-0.062352,0.093262,21.721176
3890,1817,5.710171,5.154716,4.817134,-1.263832,0,0.02558,21.712353
3900,1825,5.602432,5.379771,4.955997,-1.430104,0.070346,-0.049828,21.712353
3910,1763,5.501875,5.681441,5.224148,-1.527097,0.13856,-0.118576,21.718235
3920,1808,5.343858,6.071695,5.492299,-1.537755,0.192652,-0.16947,21.73
3930,1790,5.118803,6.43322,5.779603,-1.472472,0.227825,-0.208907,21.70647
3940,1854,4.920084,6.696582,6.026206,-1.338974,0.23049,-0.25687,21.724117
3950,1823,4.742914,6.888118,6.260838,-1.14872,0.18306,-0.316291,21.70647
3960,1904,4.635174,7.012617,6.50744,-0.915832,0.091663,-0.388769,21.718235
3970,1797,4.654328,7.060501,6.682217,-0.655498,-0.021051,-0.47457,21.697647
3980,1947,4.824317,7.055712,6.828263,-0.371449,-0.119375,-0.547847,21.712353
3990,1878,5.118803,6.98628,6.907272,-0.085268,-0.175865,-0.589681,21.70647
4000,1870,5.439626,6.878541,6.847417,0.165473,-0.174,-0.590481,21.709412
4010,1936,5.686229,6.646304,6.749255,0.368251,-0.114845,-0.556907,21.718235
4020,1882,5.779603,6.335058,6.531382,0.519335,-0.021317,-0.506279,21.724117
4030,2013,5.726931,5.973533,6.227319,0.617926,0.079939,-0.452453,21.73
4040,2078,5.65271,5.667076,5.942409,0.663758,0.176398,-0.399161,21.712353
4050,2073,5.621585,5.470751,5.705383,0.657896,0.270459,-0.32615,21.721176
4060,2118,5.6982,5.3678,5.647922,0.610732,0.358658,-0.239816,21.73
4070,2174,5.81791,5.363012,5.724536,0.539054,0.44366,-0.150818,21.724117
4080,2266,5.8634,5.351041,5.844246,0.452187,0.513207,-0.071678,21.73
4090,2202,5.839458,5.379771,6.040571,0.354395,0.53106,-0.018652,21.724117
4100,2224,5.808333,5.449203,6.212954,0.248077,0.48656,0.015188,21.715294
4110,2199,5.762844,5.523423,6.332664,0.132432,0.388502,0.045032,21.709412
4120,2081,5.676652,5.580884,6.347029,0.007461,0.262732,0.07834,21.727058
4130,1919,5.583278,5.597643,6.256049,-0.123372,0.136162,0.105519,21.715294
4140,1813,5.501875,5.559336,6.143522,-0.25687,0.029577,0.117776,21.724117
4150,1742,5.372589,5.516241,6.047753,-0.380775,-0.050894,0.109783,21.724117
4160,1727,5.286397,5.535394,6.01184,-0.484429,-0.112447,0.090597,21.721176
4170,1713,5.284003,5.568913,5.999869,-0.571828,-0.150285,0.070346,21.735882
4180,1646,5.319916,5.621585,6.047753,-0.644839,-0.163608,0.064217,21.73
4190,1638,5.312734,5.671864,6.160281,-0.701596,-0.16574,0.071412,21.73
4200,1682,5.346252,5.693412,6.234501,-0.742897,-0.169737,0.090597,21.724117
4210,1680,5.303157,5.707777,6.335058,-0.762882,-0.180662,0.112447,21.709412
4220,1791,5.269638,5.640739,6.40449,-0.762349,-0.199314,0.125237,21.727058
4230,1744,5.193024,5.583278,6.392519,-0.747161,-0.228625,0.118576,21.738823
4240,1778,5.070919,5.523423,6.327875,-0.718383,-0.251008,0.088199,21.732941
4250,1763,4.912902,5.537788,6.227319,-0.681078,-0.253672,0.045032,21.70647
4260,1757,4.836287,5.556942,6.205771,-0.621124,-0.225161,0.006129,21.718235
4270,1882,4.697424,5.676652,6.256049,-0.543051,-0.184925,-0.020251,21.70647
4280,1851,4.575319,5.882554,6.248867,-0.470839,-0.159877,-0.018919,21.718235
4290,1859,4.496311,6.045359,6.174646,-0.406888,-0.140959,0.016254,21.73
4300,1862,4.446033,6.145916,6.172252,-0.353329,-0.120175,0.072744,21.732941
4310,1825,4.548983,6.1938,6.208165,-0.278986,-0.091397,0.128168,21.738823
4320,1905,4.685453,6.184223,6.277597,-0.171602,-0.052227,0.167605,21.735882
4330,1887,4.853047,6.150704,6.335058,-0.040502,-0.00826,0.193718,21.735882
4340,1936,4.979939,6.088455,6.349423,0.108983,0.031975,0.215835,21.73
4350,1889,5.102044,5.968745,6.315904,0.263265,0.063152,0.24781,21.741764
4360,1957,5.204995,5.813122,6.210559,0.409553,0.08207,0.288312,21.741764
4370,1945,5.291186,5.676652,6.069301,0.531593,0.082337,0.331746,21.744705
4380,1904,5.365406,5.564125,5.923255,0.609133,0.066349,0.375446,21.738823
4390,1957,5.470751,5.451597,5.846641,0.626453,0.038637,0.416214,21.735882
4400,1961,5.592855,5.374983,5.820304,0.592613,-0.009326,0.443394,21.73
4410,1959,5.765238,5.300763,5.755661,0.532658,-0.053825,0.462579,21.747646
4420,2017,6.016629,5.214571,5.664681,0.455118,-0.086334,0.468441,21.753529
4430,2219,6.244078,5.075707,5.643134,0.368784,-0.105253,0.446058,21.747646
4440,2135,6.409278,4.951209,5.576096,0.295507,-0.112714,0.40076,21.735882
4450,2222,6.502652,4.88896,5.554548,0.238217,-0.120708,0.35253,21.741764
4460,2366,6.569689,4.781221,5.463568,0.194784,-0.124704,0.300037,21.732941
4470,2278,6.629545,4.714183,5.377377,0.158545,-0.119109,0.233155,21.732941
4480,2105,6.636727,4.668694,5.26485,0.113779,-0.105253,0.159611,21.741764
4490,2029,6.58166,4.644751,5.195418,0.054358,-0.088998,0.087133,21.747646
4500,2011,6.493075,4.692636,5.12838,-0.025847,-0.072744,0.02638,21.738823
4510,2035,6.380548,4.730943,5.12838,-0.116444,-0.063418,-0.018119,21.747646
4520,1966,6.311116,4.812346,5.185841,-0.20864,-0.062619,-0.049029,21.759411
4530,1990,6.323087,4.893748,5.341464,-0.292842,-0.078074,-0.065017,21.735882
4540,2083,6.373365,4.99191,5.528212,-0.35253,-0.10392,-0.072211,21.735882
4550,2032,6.457162,5.099649,5.674258,-0.38264,-0.132165,-0.074609,21.741764
4560,2089,6.528988,5.118803,5.753267,-0.370116,-0.151351,-0.071145,21.738823
4570,2127,6.519411,5.092467,5.777209,-0.301902,-0.148953,-0.082603,21.744705
4580,1958,6.426037,5.023035,5.724536,-0.194784,-0.13483,-0.099923,21.747646
4590,1734,6.311116,4.975151,5.549759,-0.063152,-0.10925,-0.114845,21.765295
4600,3618,6.215348,5.00867,5.422867,0.059155,-0.083669,-0.110582,21.741764
4610,4095,6.1938,5.085284,5.343858,0.136429,-0.063685,-0.084735,21.724117
4620,4095,6.200983,5.104438,5.300763,0.150018,-0.059421,-0.05196,21.732941
4630,1844,6.136339,5.070919,5.267244,0.114046,-0.082603,-0.035972,21.738823
4640,1911,5.999869,4.977545,5.228937,0.049296,-0.129234,-0.055158,21.753529
4650,2065,5.846641,4.862624,5.17387,-0.023449,-0.181994,-0.118043,21.750587
4660,2095,5.750873,4.860229,5.224148,-0.094328,-0.219832,-0.207041,21.727058
4670,2098,5.762844,4.91769,5.343858,-0.154548,-0.244879,-0.29604,21.747646
4680,2058,5.81791,5.097255,5.533,-0.199847,-0.266196,-0.361856,21.732941
4690,2083,5.959168,5.262455,5.77242,-0.237951,-0.299504,-0.386371,21.738823
4700,2112,6.098032,5.351041,5.963956,-0.245945,-0.334144,-0.380242,21.747646
4710,2144,6.1938,5.334281,6.040571,-0.210772,-0.351464,-0.363988,21.75647
4720,2112,6.177041,5.262455,5.904101,-0.133764,-0.335743,-0.346135,21.75647
4730,2107,6.093243,5.161899,5.762844,-0.037838,-0.287513,-0.329348,21.741764
4740,2207,5.966351,5.121197,5.65271,0.049296,-0.234221,-0.30883,21.750587
4750,2179,5.846641,5.147533,5.592855,0.10019,-0.200646,-0.280851,21.732941
4760,2163,5.767632,5.159505,5.60722,0.105519,-0.192386,-0.242481,21.738823
4770,2224,5.767632,5.236119,5.659893,0.067948,-0.206242,-0.197982,21.741764
4780,2266,5.808333,5.324705,5.767632,0.006928,-0.231023,-0.156413,21.744705
4790,2263,5.894525,5.334281,5.837064,-0.059421,-0.257936,-0.131899,21.741764
4800,2265,5.951985,5.324705,5.89213,-0.112714,-0.27792,-0.127902,21.738823
4810,2349,5.990293,5.300763,5.896919,-0.133764,-0.284315,-0.144956,21.759411
4820,2401,6.01184,5.312734,5.861006,-0.120974,-0.276855,-0.168138,21.73
4830,2406,6.0286,5.403713,5.815516,-0.080472,-0.256337,-0.176665,21.747646
4840,2465,6.014235,5.528212,5.750873,-0.030377,-0.217966,-0.156147,21.753529
4850,2448,6.004658,5.628768,5.683835,0.020518,-0.165207,-0.10472,21.765295
4860,2436,6.069301,5.726931,5.664681,0.071678,-0.102588,-0.035173,21.771177
4870,2447,6.052542,5.741296,5.62398,0.127369,-0.044233,0.03464,21.780001
4880,2279,5.975927,5.722142,5.511452,0.188922,0.010126,0.083669,21.753529
4890,2063,5.820304,5.631162,5.336676,0.257136,0.065283,0.102588,21.753529
4900,1902,5.659893,5.583278,5.106832,0.317623,0.128701,0.089798,21.750587
4910,1883,5.568913,5.588067,4.99191,0.350398,0.199847,0.063951,21.762352
4920,1809,5.573701,5.664681,5.030218,0.351198,0.255804,0.046098,21.744705
4930,1712,5.702989,5.750873,5.181053,0.328015,0.288046,0.03464,21.759411
4940,1682,5.916072,5.781997,5.272032,0.301902,0.308031,0.021317,21.774118
4950,1724,6.081272,5.803545,5.389348,0.289911,0.329348,0.00373,21.765295
4960,1718,6.179435,5.779603,5.463568,0.299504,0.348533,-0.020251,21.759411
4970,1693,6.1938,5.755661,5.533,0.330946,0.351997,-0.049296,21.762352
4980,1739,6.1938,5.722142,5.590461,0.373847,0.336542,-0.078873,21.75647
4990,1865,6.217742,5.717354,5.621585,0.413283,0.297905,-0.095926,21.750587
5000,1685,6.289568,5.693412,5.597643,0.449522,0.255538,-0.100456,21.765295
5010,1667,6.330269,5.621585,5.516241,0.478833,0.232089,-0.102055,21.774118
5020,1750,6.373365,5.571307,5.410896,0.493489,0.236352,-0.101789,21.765295
5030,1731,6.430826,5.492299,5.305551,0.487893,0.256603,-0.099923,21.782942
5040,1758,6.445191,5.439626,5.274426,0.457783,0.273391,-0.106319,21.774118
5050,1838,6.399701,5.425261,5.17387,0.40449,0.269394,-0.118309,21.753529
5060,1831,6.272809,5.422867,5.020641,0.325884,0.248343,-0.124172,21.762352
5070,1771,6.086061,5.477933,4.84347,0.22143,0.220364,-0.131899,21.774118
5080,1823,5.918467,5.619191,4.771644,0.089265,0.180928,-0.137228,21.774118
5090,1808,5.796362,5.813122,4.74052,-0.062885,0.121507,-0.140426,21.765295
5100,1809,5.686229,6.035782,4.711789,-0.202778,0.059421,-0.136962,21.747646
5110,1826,5.552154,6.248867,4.783615,-0.301369,0.007461,-0.125504,21.753529
5120,1868,5.456386,6.471527,4.824317,-0.362922,-0.040769,-0.10845,21.735882
5130,1855,5.401319,6.701371,4.960786,-0.402625,-0.084469,-0.100456,21.741764
5140,1802,5.408502,6.873753,5.159505,-0.405556,-0.128701,-0.110582,21.75647
5150,1811,5.465962,7.005434,5.363012,-0.36079,-0.174,-0.140159,21.75647
5160,1840,5.497087,7.110779,5.564125,-0.2614,-0.223296,-0.184658,21.762352
5170,1802,5.346252,7.108385,5.57849,-0.117776,-0.26966,-0.223562,21.771177
5180,1816,5.118803,6.976704,5.516241,0.050894,-0.327482,-0.242747,21.768236
5190,1831,4.958392,6.785168,5.437232,0.234487,-0.403957,-0.228358,21.762352
5200,1831,4.999093,6.567295,5.341464,0.406622,-0.478567,-0.175865,21.768236
5210,1936,5.169082,6.308722,5.252879,0.538787,-0.537188,-0.098591,21.780001
5220,1937,5.403713,5.963956,5.193024,0.628585,-0.572095,-0.025847,21.768236
5230,1990,5.521029,5.638345,5.056554,0.691204,-0.584885,0.022916,21.759411
5240,2064,5.583278,5.329493,4.879383,0.71785,-0.574227,0.054092,21.75647
5250,2096,5.612009,5.135562,4.692636,0.686674,-0.552643,0.075142,21.768236
5260,1956,5.614403,5.020641,4.572925,0.60487,-0.529461,0.090064,21.759411
5270,1881,5.655105,4.977545,4.486734,0.467642,-0.492423,0.109516,21.768236
5280,1876,5.6982,4.955997,4.481946,0.301902,-0.443926,0.129767,21.762352
5290,1744,5.700594,4.977545,4.537012,0.140692,-0.385838,0.140426,21.759411
5300,1712,5.683835,5.05416,4.608838,-0.004263,-0.322953,0.137495,21.780001
5310,1843,5.621585,5.164293,4.580108,-0.124172,-0.253939,0.1311,21.765295
5320,1825,5.559336,5.348647,4.580108,-0.214502,-0.170802,0.134031,21.768236
5330,1791,5.50427,5.549759,4.608838,-0.281384,-0.083403,0.154015,21.774118
5340,1939,5.468357,5.793968,4.709395,-0.323219,0.008793,0.193718,21.771177
5350,1872,5.439626,6.007052,4.718972,-0.323485,0.112714,0.251807,21.780001
5360,1858,5.451597,6.212954,4.709395,-0.269926,0.237951,0.326683,21.782942
5370,1567,5.525817,6.394913,4.690241,-0.165473,0.386104,0.418613,21.791765
5380,2000,5.753267,6.488286,4.766856,-0.026113,0.544116,0.524132,21.791765
5390,4095,6.002264,6.502652,4.862624,0.123905,0.681078,0.625387,21.788824
5400,4095,6.224925,6.366182,4.924873,0.267795,0.760217,0.699464,21.77706
5410,2851,6.373365,6.124368,4.876989,0.387703,0.766346,0.719182,21.75647
5420,1187,6.497863,5.8634,4.745308,0.477234,0.707458,0.686141,21.771177
5430,1917,6.665458,5.657499,4.572925,0.532126,0.6086,0.635513,21.782942
5440,1921,6.895301,5.521029,4.362236,0.545715,0.507611,0.593945,21.75647
5450,1859,7.184999,5.410896,4.161122,0.500417,0.424208,0.55664,21.771177
5460,1869,7.467515,5.317522,4.084508,0.402092,0.353596,0.510009,21.765295
5470,1902,7.742848,5.224148,4.118027,0.257403,0.272591,0.440462,21.774118
5480,1941,7.898471,5.197812,4.161122,0.074077,0.167338,0.354129,21.774118
5490,1951,7.788338,5.142745,4.225766,-0.144689,0.031443,0.266729,21.771177
5500,1967,7.43639,5.094861,4.299986,-0.380775,-0.175599,0.170536,21.765295
5510,1962,7.024588,5.12838,4.31914,-0.617394,-0.46924,0.061819,21.785883
5520,2091,6.706159,5.300763,4.304775,-0.826833,-0.797256,-0.03464,21.800589
5530,2058,6.588843,5.518635,4.252102,-1.002165,-1.063452,-0.107651,21.785883
5540,1983,6.576872,5.758055,4.252102,-1.117277,-1.199081,-0.165207,21.794706
5550,2110,6.528988,6.0286,4.311957,-1.140726,-1.195884,-0.210239,21.797647
5560,2133,6.435614,6.23929,4.426879,-1.068781,-1.09223,-0.250208,21.77706
5570,2128,6.289568,6.418855,4.647145,-0.921161,-0.947541,-0.289112,21.77706
5580,2144,6.110003,6.548141,4.848258,-0.739966,-0.808714,-0.316557,21.788824
5590,2254,5.884948,6.586449,5.011064,-0.56943,-0.713587,-0.32242,21.780001
5600,2271,5.60722,6.488286,5.023035,-0.414616,-0.646172,-0.317623,21.771177
5610,2346,5.396531,6.38773,4.953603,-0.276322,-0.590214,-0.303234,21.765295
5620,2476,5.262455,6.318298,4.855441,-0.162009,-0.53106,-0.278187,21.77706
5630,2464,5.267244,6.244078,4.807557,-0.081804,-0.460181,-0.241149,21.774118
5640,2295,5.3678,6.143522,4.838682,-0.033841,-0.375179,-0.20491,21.794706
5650,2320,5.497087,6.009446,4.93445,-0.000266,-0.278187,-0.188922,21.782942
5660,2295,5.616797,5.861006,5.102044,0.034907,-0.19132,-0.203577,21.800589
5670,2158,5.6982,5.693412,5.228937,0.083136,-0.124438,-0.241681,21.809412
5680,2057,5.722142,5.559336,5.250484,0.148686,-0.067149,-0.282717,21.800589
5690,1915,5.686229,5.489904,5.145139,0.229158,-0.012257,-0.297905,21.794706
5700,1678,5.597643,5.45878,4.984728,0.310695,0.057289,-0.273923,21.794706
5710,1662,5.528212,5.430049,4.759673,0.377844,0.15215,-0.216368,21.788824
5720,1631,5.456386,5.401319,4.537012,0.417547,0.270992,-0.145755,21.794706
5730,1594,5.420473,5.434838,4.39336,0.42261,0.402358,-0.072211,21.809412
5740,1682,5.461174,5.518635,4.256891,0.397562,0.548113,-0.004796,21.800589
5750,1643,5.585672,5.597643,4.252102,0.350931,0.712787,0.055158,21.812353
5760,1616,5.731719,5.647922,4.283227,0.310695,0.873197,0.101522,21.797647
5770,1665,5.803545,5.667076,4.383783,0.285914,1.000567,0.135096,21.785883
5780,1648,5.83467,5.638345,4.479551,0.277121,1.070646,0.14842,21.800589
5790,1663,5.770026,5.635951,4.460398,0.261133,1.077308,0.128701,21.788824
5800,1758,5.647922,5.707777,4.316746,0.210505,1.036806,0.094861,21.782942
5810,1730,5.453991,5.786786,4.094085,0.132165,0.974187,0.072478,21.791765
5820,1728,5.298368,5.856217,3.885789,0.032242,0.916364,0.061286,21.780001
5830,1727,5.240908,6.021417,3.787627,-0.071145,0.880126,0.040502,21.797647
5840,1797,5.267244,6.217742,3.885789,-0.166273,0.844686,0.011191,21.782942
5850,1799,5.363012,6.380548,4.197036,-0.236619,0.792992,-0.024781,21.794706
5860,1719,5.48751,6.442797,4.570531,-0.258202,0.707191,-0.06102,21.797647
5870,1739,5.650316,6.414066,4.869806,-0.209972,0.59581,-0.110582,21.791765
5880,1757,5.822699,6.38773,5.090073,-0.100456,0.490025,-0.172668,21.785883
5890,1762,5.978322,6.406884,5.216966,0.039703,0.412484,-0.225694,21.780001
5900,1778,6.157887,6.490681,5.291186,0.168138,0.37891,-0.242214,21.788824
5910,1831,6.323087,6.572083,5.288792,0.257403,0.382107,-0.20864,21.785883
5920,1637,6.351817,6.555324,5.216966,0.304034,0.411951,-0.137228,21.780001
5930,1754,6.205771,6.43322,4.970363,0.301103,0.447124,-0.066349,21.782942
5940,1709,5.877765,6.277597,4.759673,0.256603,0.482564,-0.011191,21.780001
5950,1786,5.477933,6.23929,4.539406,0.171602,0.498285,0.031709,21.797647
5960,1725,5.066131,6.184223,4.359841,0.061553,0.48283,0.066083,21.800589
5970,1885,4.79798,6.138733,4.302381,-0.054358,0.438864,0.0874,21.809412
5980,1876,4.642357,6.124368,4.335899,-0.170003,0.374913,0.090864,21.797647
5990,2017,4.608838,6.066907,4.419696,-0.275256,0.296306,0.071945,21.797647
6000,2079,4.733337,5.987898,4.659117,-0.351198,0.217167,0.026913,21.785883
6010,1979,4.922479,5.837064,4.912902,-0.371182,0.142025,-0.057822,21.791765
6020,1757,5.106832,5.667076,5.149928,-0.328548,0.073011,-0.183326,21.815294
6030,1746,5.317522,5.566519,5.372589,-0.244346,-0.002398,-0.33441,21.812353
6040,1693,5.50427,5.564125,5.600038,-0.149752,-0.085534,-0.475902,21.791765
6050,1722,5.688623,5.679047,5.738902,-0.071412,-0.161743,-0.573161,21.791765
6060,1770,5.786786,5.813122,5.659893,-0.029844,-0.202778,-0.612864,21.797647
6070,1802,5.726931,5.911284,5.430049,-0.028778,-0.182793,-0.592879,21.809412
6080,1714,5.528212,5.89213,5.068525,-0.060221,-0.090064,-0.530527,21.824118
6090,1698,5.231331,5.861006,4.704607,-0.118043,0.057556,-0.434867,21.806471
6100,1969,4.898537,5.786786,4.458004,-0.194518,0.223029,-0.314692,21.797647
6110,1695,4.683059,5.722142,4.326323,-0.29151,0.371182,-0.179862,21.785883
6120,1423,4.551377,5.643134,4.321534,-0.406355,0.492423,-0.052227,21.788824
6130,1595,4.515464,5.559336,4.412514,-0.510809,0.595544,0.045299,21.800589
6140,4095,4.534618,5.446809,4.594473,-0.580888,0.682677,0.106851,21.794706
6150,4095,4.575319,5.324705,4.891354,-0.613663,0.718916,0.114845,21.780001
6160,3473,4.592079,5.236119,5.212177,-0.604603,0.686141,0.058355,21.791765
6170,1008,4.642357,5.228937,5.533,-0.564368,0.592613,-0.044233,21.794706
6180,1858,4.721366,5.298368,5.801151,-0.51827,0.445525,-0.167072,21.812353
6190,1689,4.805163,5.444415,5.968745,-0.490025,0.260067,-0.288312,21.818235
6200,1612,4.8722,5.657499,6.002264,-0.486827,0.08207,-0.384505,21.818235
6210,1759,4.886566,5.820304,5.918467,-0.508677,-0.044766,-0.447124,21.806471
6220,1754,4.860229,5.973533,5.750873,-0.551044,-0.103654,-0.491357,21.806471
6230,1769,4.809951,6.023811,5.592855,-0.605936,-0.098325,-0.523332,21.827059
6240,1851,4.771644,5.995081,5.492299,-0.663492,-0.051161,-0.551044,21.812353
6250,1820,4.730943,5.942409,5.45878,-0.718383,0.008793,-0.564101,21.80353
6260,1998,4.752491,5.90889,5.475539,-0.76981,0.072744,-0.531859,21.812353
6270,1904,4.865018,5.81791,5.667076,-0.814043,0.124172,-0.447657,21.809412
6280,1951,5.058948,5.779603,5.959168,-0.845219,0.134564,-0.337342,21.80353
6290,1991,5.284003,5.750873,6.279991,-0.888386,0.099124,-0.220098,21.812353
6300,2111,5.453991,5.676652,6.569689,-0.953669,0.026646,-0.124971,21.818235
6310,2097,5.592855,5.568913,6.751649,-1.01842,-0.053026,-0.092462,21.80353
6320,2130,5.621585,5.391742,6.828263,-1.050395,-0.112181,-0.131899,21.80353
6330,2089,5.573701,5.255273,6.773197,-1.037871,-0.135629,-0.227292,21.791765
6340,2219,5.430049,5.193024,6.658275,-0.985112,-0.111381,-0.345868,21.818235
6350,2237,5.281609,5.207389,6.572083,-0.901976,-0.048496,-0.456717,21.809412
6360,2325,5.121197,5.300763,6.562507,-0.821237,0.02185,-0.535856,21.800589
6370,2422,4.987122,5.401319,6.663064,-0.756753,0.063418,-0.575293,21.827059
6380,2386,4.900931,5.506664,6.789956,-0.72158,0.065017,-0.581155,21.827059
6390,2368,4.826711,5.604826,6.976704,-0.714919,0.024248,-0.559038,21.812353
6400,2379,4.793192,5.643134,7.127539,-0.725044,-0.046897,-0.528662,21.824118
6410,2369,4.759673,5.650316,7.254431,-0.74796,-0.131899,-0.510276,21.821177
6420,2161,4.716578,5.676652,7.388506,-0.779403,-0.220897,-0.505213,21.806471
6430,1925,4.699818,5.746084,7.539341,-0.811378,-0.309096,-0.503614,21.832941
6440,1761,4.685453,5.81791,7.656657,-0.831896,-0.39623,-0.494821,21.835882
6450,1729,4.666299,5.829881,7.740454,-0.828698,-0.454052,-0.475103,21.824118
6460,1719,4.611232,5.83467,7.730877,-0.788995,-0.472171,-0.454851,21.821177
6470,1706,4.5418,5.786786,7.697359,-0.706392,-0.444193,-0.436199,21.815294
6480,1760,4.450821,5.83467,7.661446,-0.590747,-0.378377,-0.410352,21.815294
6490,1605,4.381389,5.894525,7.666234,-0.464178,-0.288579,-0.361057,21.821177
6500,1627,4.359841,6.016629,7.699753,-0.33521,-0.183859,-0.28245,21.835882
6510,1657,4.355053,6.064513,7.771579,-0.216101,-0.087133,-0.175865,21.821177
6520,1679,4.390966,6.059724,7.867347,-0.11298,-0.011191,-0.055957,21.806471
6530,1715,4.414908,5.916072,7.915231,-0.00453,0.053825,0.054891,21.800589
6540,1814,4.422091,5.765238,7.872135,0.1303,0.131366,0.147087,21.818235
6550,1825,4.41012,5.657499,7.733272,0.270992,0.224361,0.227825,21.809412
6560,1648,4.369418,5.556942,7.742848,0.394364,0.312028,0.29977,21.821177
6570,1733,4.412514,5.50427,7.773973,0.4783,0.366386,0.349599,21.824118
6580,1815,4.448427,5.398925,7.867347,0.523066,0.373047,0.355194,21.815294
6590,1779,4.498705,5.243302,7.915231,0.538254,0.337874,0.301902,21.821177
6600,1839,4.48434,5.104438,7.802703,0.537455,0.281384,0.195583,21.83
6610,1845,4.417302,5.044583,7.635109,0.512407,0.219032,0.066349,21.824118
6620,1814,4.359841,5.090073,7.438785,0.460181,0.167072,-0.050628,21.824118
6630,1949,4.299986,5.238513,7.266402,0.373047,0.12657,-0.120974,21.832941
6640,1713,4.350265,5.494693,7.271191,0.247277,0.083403,-0.124172,21.832941
6650,1813,4.544195,5.808333,7.457938,0.096193,0.03011,-0.051161,21.818235
6660,1840,4.860229,6.009446,7.793127,-0.044499,-0.029044,0.067681,21.835882
6670,1849,5.212177,6.064513,8.090008,-0.140959,-0.077807,0.181461,21.821177
6680,1887,5.516241,6.002264,8.228871,-0.173467,-0.101256,0.257669,21.812353
6690,1854,5.6982,5.880159,8.228871,-0.143357,-0.086334,0.287513,21.815294
6700,1845,5.726931,5.691018,8.106767,-0.07008,-0.044233,0.281917,21.827059
6710,1901,5.612009,5.516241,7.90326,0.027179,0.006395,0.257936,21.821177
6720,1872,5.439626,5.363012,7.659051,0.131632,0.038371,0.243813,21.821177
6730,1862,5.284003,5.351041,7.474698,0.229158,0.040236,0.273923,21.83
6740,1959,5.193024,5.422867,7.338228,0.315758,0.014389,0.369317,21.824118
6750,1969,5.166687,5.453991,7.254431,0.384239,-0.042368,0.523066,21.818235
6760,2053,5.178658,5.3678,7.163452,0.430603,-0.127103,0.691737,21.832941
6770,2040,5.149928,5.176264,6.98628,0.463378,-0.217966,0.823636,21.827059
6780,2165,5.121197,4.948815,6.79235,0.4783,-0.290444,0.880126,21.821177
6790,2242,5.130774,4.805163,6.579266,0.458315,-0.33521,0.863072,21.83
6800,2151,5.133168,4.726154,6.31351,0.413017,-0.334943,0.775406,21.838823
6810,2103,5.044583,4.697424,6.021417,0.337874,-0.276855,0.622456,21.832941
6820,1892,4.88896,4.721366,5.74369,0.233954,-0.160144,0.445259,21.824118
6830,2023,4.685453,4.786009,5.590461,0.091397,-0.005596,0.286181,21.827059
6840,1725,4.505888,4.860229,5.544971,-0.076475,0.151617,0.163342,21.821177
6850,1907,4.395754,4.958392,5.693412,-0.247544,0.263265,0.079406,21.835882
6860,2067,4.414908,5.018247,6.059724,-0.398894,0.302701,0.020251,21.83
6870,2054,4.548983,5.092467,6.505046,-0.502815,0.263798,-0.044233,21.838823
6880,1831,4.714183,5.154716,6.955156,-0.532126,0.156147,-0.113779,21.83
6890,1968,4.896142,5.195418,7.345411,-0.483363,-0.002931,-0.175066,21.83
6900,1998,5.066131,5.257667,7.687782,-0.371449,-0.193185,-0.222763,21.832941
6910,1778,5.262455,5.279215,7.982268,-0.214769,-0.403957,-0.264864,21.853529
6920,1727,5.45878,5.382165,8.11395,-0.041568,-0.616861,-0.297639,21.853529
6930,3539,5.662287,5.492299,8.169016,0.124172,-0.800986,-0.30883,21.838823
6940,4095,5.887342,5.633556,8.106767,0.263798,-0.926757,-0.291776,21.847647
6950,4095,6.035782,5.700594,7.876924,0.36532,-0.976585,-0.24781,21.85647
6960,1417,6.150704,5.645528,7.613562,0.428205,-0.956334,-0.190254,21.844706
6970,1717,6.244078,5.554548,7.319075,0.459115,-0.876662,-0.12657,21.83
6980,1863,6.256049,5.456386,6.976704,0.477234,-0.746361,-0.047164,21.832941
6990,1840,6.217742,5.317522,6.631939,0.493222,-0.576891,0.049029,21.83
7000,1856,6.143522,5.135562,6.34224,0.50841,-0.383972,0.155348,21.835882
7010,1893,6.062119,4.93445,6.110003,0.531859,-0.180395,0.259002,21.838823
7020,1971,5.918467,4.754885,5.825093,0.555308,0.029044,0.354662,21.847647
7030,1965,5.765238,4.685453,5.62398,0.576358,0.255271,0.449256,21.83
7040,1910,5.619191,4.671088,5.492299,0.603005,0.49189,0.553975,21.838823
7050,1905,5.566519,4.781221,5.509058,0.61393,0.714386,0.672018,21.841764
7060,2005,5.571307,4.88896,5.741296,0.593412,0.87,0.79619,21.841764
7070,2068,5.640739,4.944026,6.150704,0.551044,0.904907,0.898778,21.841764
7080,2075,5.722142,5.006276,6.531382,0.492156,0.799387,0.958732,21.844706
7090,2026,5.767632,5.0374,6.895301,0.423675,0.568364,0.980848,21.859411
7100,2191,5.770026,5.056554,7.060501,0.369583,0.257669,0.961397,21.862352
7110,2115,5.724536,5.011064,6.924031,0.333078,-0.059688,0.905972,21.853529
7120,2223,5.647922,4.896142,6.607996,0.294974,-0.326683,0.810046,21.841764
7130,2234,5.523423,4.778827,6.189012,0.223828,-0.507078,0.684542,21.841764
7140,2322,5.391742,4.663905,5.753267,0.096193,-0.595277,0.523066,21.827059
7150,2410,5.29358,4.601655,5.351041,-0.102055,-0.608067,0.333877,21.850588
7160,2389,5.233725,4.572925,5.049371,-0.346934,-0.565966,0.1311,21.841764
7170,2559,5.159505,4.618415,4.912902,-0.615262,-0.484162,-0.063152,21.841764
7180,2448,5.109226,4.72376,5.001487,-0.857476,-0.3917,-0.211571,21.841764
7190,2640,5.137957,4.855441,5.233725,-1.018952,-0.302168,-0.284582,21.841764
7200,2542,5.238513,5.070919,5.530606,-1.090897,-0.215568,-0.273391,21.847647
7210,2303,5.403713,5.262455,5.875371,-1.067715,-0.125237,-0.192652,21.850588
7220,2198,5.600038,5.358223,6.265626,-0.949939,-0.039703,-0.077807,21.844706
7230,2085,5.741296,5.336676,6.71813,-0.731173,0.009326,0.031709,21.850588
7240,1941,5.849035,5.257667,6.969521,-0.462046,0.015188,0.106319,21.847647
7250,1811,5.868188,5.106832,7.065289,-0.189188,-0.029311,0.119908,21.85647
7260,1806,5.803545,4.91769,7.082048,0.066083,-0.112714,0.067149,21.850588
7270,1879,5.647922,4.795586,6.880936,0.269926,-0.217966,-0.020518,21.832941
7280,1746,5.516241,4.771644,6.586449,0.401559,-0.314692,-0.111115,21.835882
7290,1680,5.477933,4.898537,6.378153,0.476168,-0.370916,-0.18679,21.835882
7300,1700,5.566519,5.137957,6.299145,0.467642,-0.3917,-0.207841,21.853529
7310,1739,5.691018,5.310339,6.196194,0.410619,-0.398095,-0.177997,21.847647
7320,1745,5.827487,5.425261,6.220136,0.334677,-0.393565,-0.120441,21.847647
7330,1695,5.966351,5.516241,6.229713,0.266995,-0.389835,-0.034107,21.859411
7340,1911,6.093243,5.509058,6.270414,0.223828,-0.386104,0.084735,21.838823
7350,1787,6.234501,5.501875,6.229713,0.197715,-0.382107,0.230224,21.824118
7360,1762,6.40449,5.418078,6.105214,0.188122,-0.34347,0.401825,21.841764
7370,1807,6.670246,5.21936,6.086061,0.224628,-0.2606,0.547847,21.85647
7380,1713,6.892907,4.946421,6.098032,0.3043,-0.174533,0.626187,21.850588
7390,1790,6.998251,4.704607,6.131551,0.419945,-0.101256,0.64404,21.844706
7400,1713,7.070077,4.544195,6.042965,0.55664,-0.043433,0.628851,21.832941
7410,1863,7.161057,4.458004,6.01184,0.694135,0.001066,0.6086,21.841764
7420,1712,7.299921,4.489128,6.112397,0.811378,0.018652,0.58675,21.838823
7430,1779,7.371747,4.553771,6.198588,0.897712,-0.010925,0.580089,21.835882
7440,1680,7.31668,4.572925,6.189012,0.942744,-0.10472,0.575026,21.835882
7450,1749,6.981492,4.458004,5.841852,0.930753,-0.245945,0.564634,21.835882
7460,1755,6.40449,4.254497,5.236119,0.849482,-0.385305,0.544916,21.844706
7470,1740,5.78918,4.058172,4.568137,0.694401,-0.482564,0.510809,21.844706
7480,1709,5.274426,3.926491,3.98874,0.468974,-0.520934,0.456184,21.844706
7490,1764,4.984728,3.888184,3.615245,0.175332,-0.498551,0.375712,21.85647
7500,1694,4.857835,3.933673,3.397372,-0.192119,-0.429005,0.269394,21.853529
7510,1741,4.893748,4.053383,3.411737,-0.605936,-0.333611,0.160677,21.85647
7520,1710,5.123591,4.252102,3.77805,-1.023749,-0.24408,0.062885,21.859411
7530,1714,5.547365,4.474763,4.381389,-1.389335,-0.173734,-0.014389,21.844706
7540,1730,5.940014,4.663905,4.946421,-1.62249,-0.123639,-0.071145,21.853529
7550,1751,6.169858,4.869806,5.489904,-1.716018,-0.03917,-0.119642,21.853529
7560,1858,6.232107,5.025429,5.889736,-1.630484,0.058089,-0.152683,21.841764
7570,1872,6.133945,5.149928,6.244078,-1.37921,0.12124,-0.193185,21.844706
7580,1914,6.01184,5.358223,6.375759,-1.021884,0.14389,-0.243547,21.832941
7590,2027,5.870583,5.626374,6.370971,-0.624855,0.161476,-0.283516,21.853529
7600,1955,5.741296,5.918467,6.315904,-0.259268,0.180928,-0.274989,21.859411
7610,1883,5.650316,6.066907,6.138733,0.024515,0.179063,-0.209173,21.862352
7620,1779,5.604826,6.086061,5.889736,0.218233,0.171602,-0.099657,21.853529
7630,1705,5.631162,5.884948,5.650316,0.342937,0.166539,0.02638,21.85647
7640,1714,5.777209,5.564125,5.494693,0.414349,0.160144,0.133231,21.853529
7650,1693,5.918467,5.236119,5.353435,0.446858,0.134297,0.198781,21.844706
7660,1715,6.054936,4.920084,5.216966,0.446058,0.084735,0.219565,21.859411
7670,1726,6.172252,4.69503,5.046977,0.408753,0.026913,0.215035,21.859411
7680,1778,6.315904,4.546589,4.996699,0.311228,-0.031176,0.181461,21.859411
7690,1776,6.469133,4.455609,5.006276,0.161476,-0.085801,0.120441,21.850588
7700,1751,6.562507,4.378995,5.149928,0.005862,-0.131899,0.037571,21.850588
7710,1790,6.596025,4.36463,5.327099,-0.124704,-0.178796,-0.062619,21.862352
7720,1501,6.591237,4.378995,5.57849,-0.218233,-0.239816,-0.163608,21.865294
7730,2112,6.545747,4.41012,5.770026,-0.276588,-0.32162,-0.250741,21.865294
7740,4095,6.418855,4.431667,5.853823,-0.304833,-0.428738,-0.314426,21.859411
7750,4095,6.200983,4.496311,5.729325,-0.314426,-0.54385,-0.355994,21.850588
7760,2496,5.935226,4.618415,5.535394,-0.314159,-0.640576,-0.372248,21.862352
7770,1233,5.674258,4.79798,5.284003,-0.310162,-0.693602,-0.358126,21.862352
7780,1914,5.439626,5.044583,5.032612,-0.308031,-0.68321,-0.323485,21.838823
7790,1915,5.137957,5.269638,4.853047,-0.285648,-0.617394,-0.279519,21.841764
7800,1856,4.841076,5.427655,4.67827,-0.232355,-0.504946,-0.241948,21.853529
7810,1827,4.709395,5.533,4.716578,-0.151884,-0.349599,-0.208907,21.862352
7820,1951,4.79798,5.580884,5.032612,-0.06102,-0.185724,-0.173467,21.859411
7830,1979,4.910508,5.640739,5.418078,0.033041,-0.070613,-0.128168,21.85647
7840,1945,4.975151,5.60722,5.74369,0.127902,-0.025847,-0.081538,21.844706
7850,2034,4.970363,5.564125,5.829881,0.229691,-0.035706,-0.039436,21.847647
7860,2032,5.035006,5.523423,5.801151,0.323752,-0.053825,-0.003464,21.844706
7870,2039,5.272032,5.537788,5.748478,0.414882,-0.017853,0.009593,21.847647
7880,2064,5.674258,5.592855,5.657499,0.503614,0.096459,0.018119,21.853529
7890,2122,6.14831,5.60722,5.671864,0.599541,0.293109,0.03011,21.868235
7900,2118,6.591237,5.602432,5.695806,0.695734,0.548113,0.032775,21.85647
7910,2130,6.825869,5.564125,5.683835,0.807381,0.813244,0.031975,21.868235
7920,2208,6.974309,5.544971,5.710171,0.919029,1.013357,0.03464,21.865294
7930,2299,7.029376,5.643134,5.664681,1.004031,1.097559,0.073011,21.865294
7940,2343,6.943185,5.693412,5.509058,1.049329,1.069847,0.164407,21.862352
7950,2373,6.892907,5.655105,5.216966,1.045066,0.952603,0.276855,21.862352
7960,2407,6.900089,5.597643,4.920084,0.984312,0.783666,0.384772,21.868235
7970,2439,6.95755,5.473145,4.663905,0.884389,0.594478,0.465243,21.879999
7980,2475,7.005434,5.343858,4.34787,0.755954,0.413283,0.481764,21.859411
7990,2475,6.952762,5.245696,4.048595,0.609666,0.255005,0.428738,21.859411
8000,2437,6.785168,5.157111,3.830723,0.460181,0.116178,0.361323,21.877058
8010,2339,6.557718,5.030218,3.663129,0.287779,-0.015988,0.273391,21.879999
8020,2283,6.351817,5.00867,3.588908,0.089531,-0.1303,0.193452,21.879999
8030,2093,6.272809,4.996699,3.660734,-0.126037,-0.216368,0.167871,21.865294
8040,1936,6.246472,4.915296,3.825934,-0.31256,-0.2614,0.172135,21.88294
8050,1870,6.212954,4.831499,4.027047,-0.447124,-0.263531,0.177997,21.885881
8060,1815,6.086061,4.711789,4.218584,-0.528129,-0.23875,0.159345,21.874117
8070,1695,5.832275,4.642357,4.333505,-0.569164,-0.215302,0.102855,21.877058
8080,1728,5.470751,4.544195,4.371812,-0.583286,-0.201179,0.022649,21.879999
8090,1856,5.166687,4.381389,4.407725,-0.546515,-0.177997,-0.083669,21.885881
8100,1821,4.987122,4.525041,4.414908,-0.509476,-0.135896,-0.168937,21.874117
8110,1779,5.011064,4.826711,4.594473,-0.532925,-0.075675,-0.197182,21.871176
8120,1782,5.154716,5.274426,4.79798,-0.621124,-0.000266,-0.144423,21.868235
8130,1779,5.298368,5.633556,5.05416,-0.726377,0.091663,-0.035706,21.868235
8140,1745,5.334281,5.861006,5.286397,-0.779136,0.174,0.073011,21.865294
8150,1829,5.250484,5.966351,5.386954,-0.733571,0.223296,0.137761,21.871176
8160,1772,5.056554,6.086061,5.372589,-0.597675,0.232355,0.170003,21.877058
8170,1797,4.881777,6.260838,5.269638,-0.402891,0.227292,0.193985,21.874117
8180,1765,4.788404,6.473921,5.197812,-0.198515,0.228092,0.231289,21.879999
8190,1753,4.819528,6.715736,5.070919,-0.022383,0.258469,0.301103,21.874117
8200,1827,4.946421,6.864176,5.049371,0.106052,0.344003,0.40449,21.865294
8210,1807,5.212177,6.962338,4.960786,0.186524,0.498818,0.538787,21.879999
8220,1783,5.44202,6.921637,4.96318,0.240882,0.709856,0.671485,21.891766
8230,1805,5.501875,6.687006,4.994305,0.298438,0.905972,0.749825,21.885881
8240,1776,5.372589,6.294356,4.982334,0.372781,1.024015,0.727443,21.891766
8250,1795,5.193024,5.906496,4.81474,0.443127,1.068515,0.618193,21.877058
8260,1791,5.166687,5.573701,4.697424,0.482297,1.090364,0.488159,21.874117
8270,1786,5.401319,5.370194,4.886566,0.499084,1.106885,0.381041,21.877058
8280,1774,5.916072,5.236119,5.353435,0.498818,1.093828,0.298704,21.877058
8290,1798,6.493075,5.154716,5.963956,0.492689,1.018686,0.219832,21.877058
8300,1826,7.024588,5.027823,6.476315,0.516937,0.873197,0.116977,21.874117
8310,1841,7.395689,4.958392,6.691794,0.584885,0.706392,-0.014922,21.871176
8320,1854,7.570466,4.881777,6.655881,0.658162,0.551844,-0.157213,21.868235
8330,1871,7.661446,4.79798,6.514623,0.70426,0.424741,-0.274456,21.879999
8340,1895,7.778761,4.697424,6.423643,0.717051,0.311228,-0.35173,21.888824
8350,1905,7.8865,4.63278,6.363788,0.725311,0.215835,-0.398894,21.888824
8360,1925,8.02297,4.692636,6.167464,0.726643,0.164407,-0.40902,21.891766
8370,1897,8.090008,4.833893,6.083666,0.696,0.157479,-0.359991,21.871176
8380,1950,7.90326,4.84347,6.050148,0.619792,0.133498,-0.259268,21.879999
8390,1952,7.302315,4.697424,5.985504,0.494288,0.005862,-0.162542,21.877058
8400,1953,6.490681,4.446033,5.784391,0.329614,-0.242481,-0.102855,21.885881
8410,1968,5.71496,4.180276,5.463568,0.13936,-0.559038,-0.093795,21.888824
8420,2106,5.195418,3.94325,5.061342,-0.080738,-0.86174,-0.167072,21.868235
8430,2096,4.833893,3.904943,4.623203,-0.336809,-1.075975,-0.323485,21.888824
8440,2160,4.654328,3.926491,4.295198,-0.63125,-1.171636,-0.521467,21.874117
8450,2192,4.546589,3.945644,4.175488,-0.935283,-1.158312,-0.747161,21.877058
8460,2096,4.508282,4.050989,4.175488,-1.22253,-1.059988,-0.980582,21.88294
8470,2047,4.510676,4.177882,4.299986,-1.484729,-0.909969,-1.174034,21.879999
8480,1984,4.441244,4.335899,4.517859,-1.701097,-0.735703,-1.297939,21.900589
8490,1949,4.357447,4.453215,4.726154,-1.856444,-0.559305,-1.342438,21.888824
8500,1794,4.216189,4.503493,4.88896,-1.950239,-0.395963,-1.321654,21.891766
8510,1936,4.103662,4.548983,5.08289,-1.970224,-0.242481,-1.249176,21.90353
8520,1866,3.979163,4.58729,5.228937,-1.914,-0.087666,-1.116478,21.88294
8530,1830,3.86903,4.570531,5.353435,-1.800487,0.059688,-0.955002,21.891766
8540,1910,3.715801,4.666299,5.403713,-1.620092,0.209972,-0.769544,21.88294
8550,1840,3.608062,4.742914,5.389348,-1.348833,0.407954,-0.548913,21.88294
8560,1856,3.517082,4.793192,5.465962,-1.009093,0.629917,-0.337075,21.88294
8570,1845,3.435679,4.848258,5.62398,-0.680012,0.802851,-0.157746,21.885881
8580,1520,3.325546,4.927267,5.777209,-0.4346,0.884655,-0.03091,21.877058
8590,2192,3.186682,5.08289,5.894525,-0.305899,0.872931,0.055424,21.879999
8600,4095,3.10528,5.2026,5.944803,-0.271792,0.818306,0.121773,21.888824
8610,4095,3.131616,5.260061,5.956774,-0.266462,0.7826,0.164407,21.885881
8620,1807,3.311181,5.216966,5.999869,-0.249409,0.796723,0.180129,21.888824
8630,1191,3.557784,5.080496,6.150704,-0.190787,0.880659,0.180662,21.879999
8640,1729,3.813963,4.891354,6.349423,-0.093528,0.99124,0.165473,21.885881
8650,1853,4.060566,4.76925,6.641516,0.049029,1.10502,0.146554,21.894707
8660,1744,4.311957,4.709395,6.962338,0.227026,1.193219,0.10845,21.879999
8670,1660,4.58729,4.836287,7.357382,0.377044,1.206542,0.051161,21.894707
8680,1834,4.879383,5.051765,7.706935,0.468441,1.139394,-0.011458,21.891766
8690,1786,5.058948,5.26485,7.951144,0.511608,1.017354,-0.053559,21.894707
8700,1786,5.164293,5.351041,7.999028,0.506812,0.868401,-0.067681,21.894707
8710,2006,5.252879,5.336676,7.982268,0.464444,0.718916,-0.083669,21.888824
8720,1862,5.353435,5.329493,7.893683,0.379975,0.580089,-0.116444,21.891766
8730,1950,5.446809,5.214571,7.795521,0.279253,0.479899,-0.183593,21.891766
8740,1967,5.494693,5.087678,7.769185,0.198248,0.412217,-0.293642,21.897648
8750,2023,5.556942,4.955997,7.716512,0.146021,0.362389,-0.415681,21.897648
8760,2117,5.549759,4.862624,7.623138,0.118043,0.315492,-0.531859,21.891766
8770,1999,5.590461,4.857835,7.563283,0.108717,0.269127,-0.630184,21.888824
8780,2113,5.638345,4.922479,7.558495,0.096992,0.2169,-0.698398,21.897648
8790,2093,5.688623,5.011064,7.52737,0.074343,0.166273,-0.729574,21.888824
8800,2158,5.659893,5.049371,7.508216,0.041035,0.117243,-0.733571,21.888824
8810,2267,5.614403,5.025429,7.460332,0.011724,0.066349,-0.727709,21.897648
8820,2335,5.559336,4.951209,7.438785,-0.001066,0.016521,-0.732772,21.88294
8830,2502,5.482722,4.979939,7.45315,0.002398,-0.028245,-0.747427,21.912354
8840,2329,5.451597,5.075707,7.544129,-0.007461,-0.083669,-0.748227,21.909412
8850,2267,5.463568,5.267244,7.659051,-0.04743,-0.147887,-0.725311,21.888824
8860,2263,5.528212,5.492299,7.874529,-0.131899,-0.204643,-0.680012,21.885881
8870,2062,5.631162,5.602432,8.140285,-0.251008,-0.266729,-0.622723,21.90353
8880,2005,5.662287,5.645528,8.374918,-0.37891,-0.340806,-0.579023,21.909412
8890,1789,5.616797,5.590461,8.497022,-0.491623,-0.412217,-0.556107,21.90353
8900,1744,5.437232,5.398925,8.508993,-0.57023,-0.462579,-0.553443,21.897648
8910,1621,5.238513,5.245696,8.3821,-0.609933,-0.482564,-0.58675,21.891766
8920,1470,5.046977,5.075707,8.312668,-0.620858,-0.467908,-0.636046,21.900589
8930,1439,4.850653,5.018247,8.295909,-0.605136,-0.430603,-0.706925,21.897648
8940,1535,4.687847,5.08289,8.394072,-0.593945,-0.37811,-0.770609,21.897648
8950,1338,4.589684,5.228937,8.571242,-0.591014,-0.33068,-0.81724,21.90353
8960,1470,4.548983,5.44202,8.839393,-0.602472,-0.292043,-0.831096,21.879999
8970,1555,4.517859,5.645528,9.095572,-0.629651,-0.265397,-0.804184,21.885881
8980,1515,4.446033,5.753267,9.382876,-0.646971,-0.259268,-0.758619,21.891766
8990,1460,4.338294,5.815516,9.483433,-0.651234,-0.254472,-0.703461,21.90353
9000,1488,4.197036,5.781997,9.555259,-0.625654,-0.246478,-0.649369,21.897648
9010,1594,4.03423,5.734113,9.497798,-0.575559,-0.226227,-0.588882,21.900589
9020,1622,3.931279,5.626374,9.454702,-0.492156,-0.192919,-0.539054,21.90353
9030,1615,3.82354,5.616797,9.378088,-0.391966,-0.146821,-0.495354,21.909412
9040,1658,3.730166,5.719748,9.26556,-0.306165,-0.09566,-0.427139,21.90353
9050,1702,3.677494,5.880159,9.188946,-0.2614,-0.043433,-0.324018,21.891766
9060,1648,3.663129,5.995081,9.25359,-0.250208,-0.008793,-0.183593,21.93
9070,1751,3.744531,6.090849,9.358934,-0.243014,0.002931,-0.019452,21.927059
9080,1719,3.79481,6.07409,9.40203,-0.224095,-0.01359,0.155614,21.897648
9090,1687,3.849876,5.992687,9.301474,-0.181727,-0.047164,0.318156,21.906471
9100,1776,3.938462,5.810728,9.14585,-0.111115,-0.079406,0.450855,21.900589
9110,1826,4.06296,5.695806,9.006987,-0.015988,-0.106319,0.546248,21.918236
9120,1838,4.189853,5.614403,8.875306,0.09193,-0.121507,0.612597,21.912354
9130,1815,4.345476,5.57849,8.734048,0.195583,-0.128435,0.656031,21.915295
9140,1776,4.532224,5.573701,8.695741,0.28698,-0.133231,0.678413,21.885881
9150,1892,4.718972,5.626374,8.645462,0.359724,-0.135629,0.690671,21.88294
9160,1891,4.898537,5.657499,8.535329,0.403424,-0.139626,0.698665,21.885881
9170,1936,5.027823,5.66947,8.413225,0.422343,-0.14309,0.708524,21.906471
9180,1936,5.094861,5.616797,8.267179,0.425541,-0.141758,0.716784,21.912354
9190,1947,5.149928,5.518635,8.06846,0.419678,-0.13483,0.717051,21.915295
9200,1955,5.2026,5.425261,7.874529,0.415948,-0.114845,0.707724,21.90353
9210,2039,5.257667,5.379771,7.745243,0.417547,-0.087133,0.689871,21.897648
9220,2093,5.315128,5.394136,7.644686,0.422343,-0.061819,0.67042,21.921177
9230,2087,5.351041,5.437232,7.584831,0.409553,-0.054358,0.668021,21.906471
9240,2128,5.415684,5.485116,7.577648,0.376245,-0.071678,0.681611,21.906471
9250,2281,5.44202,5.489904,7.548918,0.332545,-0.113779,0.701063,21.885881
9260,2314,5.444415,5.449203,7.479486,0.292043,-0.173734,0.721314,21.897648
9270,2173,5.372589,5.363012,7.359776,0.258735,-0.244346,0.734104,21.906471
9280,2160,5.295974,5.207389,7.137115,0.239816,-0.320288,0.730374,21.888824
9290,2107,5.212177,5.087678,6.919243,0.232622,-0.390368,0.708524,21.888824
9300,2018,5.149928,4.987122,6.751649,0.226227,-0.45272,0.668821,21.906471
9310,2038,5.125986,4.93445,6.687006,0.20944,-0.512407,0.612597,21.894707
9320,2078,5.161899,4.967968,6.691794,0.176665,-0.574493,0.541985,21.897648
9330,2068,5.240908,5.063736,6.780379,0.129501,-0.636046,0.466842,21.891766
9340,2064,5.32231,5.195418,6.950367,0.085534,-0.693335,0.40076,21.90353
9350,2116,5.379771,5.243302,7.043741,0.071412,-0.75249,0.33441,21.906471
9360,2102,5.377377,5.178658,7.067683,0.087133,-0.813776,0.251807,21.909412
9370,2145,5.274426,5.073313,6.938396,0.11751,-0.87906,0.157746,21.915295
9380,1989,5.12838,4.982334,6.749255,0.159877,-0.932619,0.068214,21.915295
9390,1722,5.018247,4.948815,6.576872,0.188655,-0.984579,-0.00373,21.912354
9400,3611,4.996699,4.982334,6.517017,0.202511,-1.040269,-0.040502,21.909412
9410,4095,5.011064,5.015852,6.497863,0.198515,-1.103954,-0.037305,21.909412
9420,4095,5.058948,5.073313,6.493075,0.18226,-1.169237,-0.008527,21.909412
9430,1808,5.118803,5.097255,6.43322,0.163075,-1.216401,0.024515,21.900589
9440,1847,5.260061,5.094861,6.40449,0.148953,-1.232123,0.046897,21.909412
9450,2160,5.355829,5.090073,6.38773,0.14762,-1.21427,0.055158,21.912354
9460,2112,5.470751,5.075707,6.368577,0.16121,-1.171369,0.055957,21.918236
9470,2150,5.528212,5.0374,6.308722,0.193718,-1.106352,0.059421,21.915295
9480,2145,5.552154,4.941632,6.160281,0.243813,-1.014689,0.06102,21.915295
9490,2106,5.540183,4.819528,5.978322,0.308297,-0.905439,0.061819,21.915295
9500,2164,5.499481,4.704607,5.841852,0.37811,-0.789262,0.070613,21.918236
9510,2178,5.430049,4.627992,5.659893,0.449522,-0.678413,0.097259,21.918236
9520,2149,5.425261,4.584896,5.547365,0.514273,-0.579556,0.155881,21.927059
9530,2192,5.473145,4.532224,5.50427,0.566233,-0.508943,0.225427,21.921177
9540,2217,5.597643,4.52983,5.482722,0.603538,-0.455917,0.305632,21.927059
9550,2167,5.748478,4.556166,5.475539,0.633648,-0.406888,0.401026,21.909412
9560,2199,5.870583,4.548983,5.3678,0.662692,-0.344003,0.507878,21.93
9570,2181,5.920861,4.436456,5.171476,0.688273,-0.263531,0.596876,21.921177
9580,2238,5.901707,4.283227,4.994305,0.70053,-0.173467,0.645905,21.918236
9590,2286,5.8634,4.113238,4.824317,0.69973,-0.095394,0.650701,21.912354
9600,2296,5.765238,3.971981,4.699818,0.68694,-0.030643,0.613663,21.921177
9610,2349,5.65271,3.873818,4.510676,0.664557,0.020251,0.54385,21.918236
9620,2361,5.513846,3.878607,4.34787,0.625654,0.05649,0.47457,21.924118
9630,2384,5.403713,4.019865,4.149151,0.559305,0.099124,0.438597,21.924118
9640,2423,5.310339,4.252102,3.945644,0.476701,0.175599,0.455118,21.927059
9650,2333,5.33907,4.510676,3.928885,0.388769,0.289645,0.50921,21.927059
9660,2462,5.477933,4.776433,4.050989,0.312827,0.414616,0.573694,21.918236
9670,2419,5.74369,5.051765,4.383783,0.261933,0.532658,0.628851,21.927059
9680,2299,6.136339,5.260061,4.805163,0.270726,0.627519,0.66056,21.924118
9690,2122,6.631939,5.425261,5.255273,0.379443,0.692802,0.666156,21.909412
9700,1926,7.101202,5.501875,5.786786,0.596077,0.725844,0.642974,21.906471
9710,1815,7.493851,5.523423,6.05733,0.90011,0.722113,0.586484,21.924118
9720,1731,7.70933,5.588067,5.916072,1.22626,0.696533,0.515871,21.924118
9730,1689,7.721301,5.552154,5.449203,1.502049,0.67042,0.449789,21.935883
9740,1706,7.536947,5.396531,4.783615,1.665124,0.611265,0.39623,21.935883
9750,1645,7.302315,5.214571,4.115633,1.686175,0.537188,0.371982,21.935883
9760,1637,7.216124,5.030218,3.574543,1.59238,0.426606,0.363455,21.932941
9770,1680,7.381324,4.838682,3.265691,1.428239,0.31256,0.368518,21.909412
9780,1698,7.671022,4.639963,3.167529,1.249443,0.208374,0.38344,21.915295
9790,1675,7.967903,4.381389,3.16274,1.072778,0.10392,0.385038,21.921177
9800,1655,8.054094,4.156334,3.110068,0.875862,-0.003997,0.346401,21.921177
9810,1671,7.996634,3.940856,3.148375,0.650435,-0.162542,0.251008,21.927059
9820,1643,7.848193,3.785233,3.143587,0.419145,-0.359191,0.11298,21.93
9830,1712,7.560889,3.715801,3.167529,0.146021,-0.632848,-0.069547,21.921177
9840,1685,7.256825,3.689465,3.184288,-0.154282,-0.929421,-0.247011,21.932941
9850,1778,7.017405,3.722984,3.248932,-0.476435,-1.19242,-0.389835,21.924118
9860,1744,6.789956,3.79481,3.29921,-0.797522,-1.38827,-0.489758,21.938824
9870,1718,6.629545,3.873818,3.303998,-1.086367,-1.502848,-0.553975,21.921177
9880,1693,6.524199,3.94325,3.325546,-1.303534,-1.520968,-0.601939,21.93
9890,1714,6.495469,4.103662,3.366248,-1.406922,-1.426374,-0.655231,21.927059
9900,1728,6.438008,4.414908,3.337517,-1.393599,-1.228126,-0.72158,21.927059
9910,1730,6.303933,4.922479,3.452439,-1.291277,-0.966726,-0.786597,21.918236
9920,1744,6.112397,5.489904,3.53863,-1.135663,-0.698398,-0.822037,21.915295
9930,1744,5.951985,6.026206,3.696647,-0.952337,-0.453253,-0.810845,21.921177
9940,1746,5.932832,6.445191,3.86903,-0.74796,-0.230757,-0.754089,21.921177
9950,1739,6.038177,6.667852,4.029441,-0.498551,-0.027446,-0.658962,21.924118
9960,1735,6.253655,6.660669,4.182671,-0.206508,0.158545,-0.551044,21.918236
9970,1758,6.481104,6.497863,4.259285,0.103387,0.326683,-0.453253,21.906471
9980,1734,6.648698,6.220136,4.213795,0.410619,0.464178,-0.367452,21.921177
9990,1807,6.785168,5.887342,3.995923,0.681611,0.567032,-0.296306,21.924118
10000,1840,6.861782,5.494693,3.725378,0.882257,0.632049,-0.249409,21.93
10010,1822,6.864176,5.147533,3.394978,0.994438,0.664291,-0.231822,21.912354
10020,1771,6.842628,4.857835,3.119645,1.012824,0.668821,-0.233155,21.912354
10030,1905,6.871359,4.671088,2.928109,0.94381,0.651501,-0.243813,21.906471
10040,1945,6.974309,4.525041,2.86586,0.808714,0.616328,-0.253672,21.912354
10050,1959,7.144298,4.462792,2.916138,0.640842,0.563035,-0.259268,21.915295
10060,2065,7.307104,4.414908,3.05979,0.46551,0.495354,-0.254738,21.918236
10070,1995,7.405266,4.345476,3.138798,0.307498,0.409553,-0.240882,21.912354
10080,1949,7.376535,4.283227,3.119645,0.172934,0.293908,-0.227559,21.935883
10090,1889,7.146692,4.261679,3.045424,0.042101,0.140959,-0.224361,21.932941
10100,1825,6.864176,4.350265,2.868254,-0.124438,-0.041568,-0.226493,21.932941
10110,1775,6.574478,4.501099,2.688689,-0.338407,-0.222496,-0.220631,21.915295
10120,1727,6.363788,4.647145,2.585738,-0.578224,-0.370916,-0.207574,21.932941
10130,1787,6.258443,4.783615,2.545036,-0.803118,-0.462046,-0.196916,21.912354
10140,1811,6.229713,4.881777,2.604892,-0.958998,-0.474037,-0.185991,21.927059
10150,1842,6.208165,5.023035,2.664747,-1.020551,-0.401825,-0.175066,21.927059
10160,1741,6.184223,5.193024,2.679112,-0.993372,-0.265397,-0.167338,21.915295
10170,1813,6.078878,5.343858,2.738967,-0.901976,-0.106052,-0.159877,21.921177
10180,1838,5.89213,5.45878,2.80361,-0.77887,0.021583,-0.146554,21.93
10190,1431,5.631162,5.528212,2.829947,-0.661626,0.087666,-0.116711,21.924118
10200,2671,5.386954,5.415684,2.796427,-0.576092,0.089265,-0.067415,21.924118
10210,4095,5.200206,5.243302,2.715025,-0.54385,0.049562,-0.017853,21.941765
10220,4095,5.020641,5.027823,2.693477,-0.57396,-0.016521,0.022116,21.932941
10230,1534,4.88896,4.795586,2.707842,-0.664824,-0.103654,0.045565,21.915295
10240,1389,4.771644,4.63278,2.724602,-0.811645,-0.200113,0.046098,21.927059
10250,1831,4.733337,4.522647,2.8491,-0.996303,-0.293375,0.034907,21.932941
10260,1755,4.774038,4.450821,3.055001,-1.178031,-0.373314,0.027712,21.935883
10270,1770,4.924873,4.371812,3.339911,-1.329648,-0.433534,0.029577,21.924118
10280,1781,5.133168,4.283227,3.734955,-1.443161,-0.476968,0.031975,21.93
10290,1779,5.377377,4.194642,4.175488,-1.528962,-0.53106,0.031176,21.909412
10300,1819,5.671864,4.177882,4.685453,-1.601439,-0.615795,0.031176,21.921177
10310,1901,6.007052,4.211401,5.274426,-1.676848,-0.742897,0.03091,21.927059
10320,1910,6.332664,4.311957,5.762844,-1.763715,-0.899311,0.021051,21.921177
10330,1910,6.586449,4.458004,6.14831,-1.849516,-1.046132,0.014922,21.909412
10340,1939,6.744466,4.580108,6.421249,-1.93132,-1.180962,-0.000266,21.927059
10350,2103,6.773197,4.675876,6.631939,-2.028312,-1.308331,-0.030643,21.924118
10360,2077,6.780379,4.838682,6.868965,-2.14449,-1.4357,-0.085002,21.935883
10370,2131,6.91206,5.05416,7.24246,-2.267596,-1.573727,-0.153749,21.932941
10380,2135,7.177817,5.358223,7.682993,-2.373381,-1.73174,-0.226493,21.932941
10390,2121,7.577648,5.74369,8.12592,-2.489559,-1.856977,-0.28325,21.944706
10400,2133,8.001422,6.05733,8.516175,-2.603871,-1.915865,-0.315492,21.924118
10410,2288,8.276755,6.294356,8.743625,-2.696334,-1.882291,-0.345602,21.93
10420,2263,8.221688,6.378153,8.765172,-2.741632,-1.733605,-0.372781,21.93
10430,2368,7.78355,6.414066,8.48984,-2.715253,-1.462879,-0.406622,21.927059
10440,2374,7.000646,6.754043,7.625533,-2.585752,-0.997103,-0.416747,21.935883
10450,2421,5.963956,7.37893,6.787562,-2.358459,-0.340273,-0.361856,21.932941
10460,2373,5.0374,8.078036,6.636727,-2.062153,0.355461,-0.241415,21.93
10470,2351,4.565742,8.391677,7.43639,-1.760784,0.842554,-0.144156,21.935883
10480,2245,4.525041,8.322245,8.734048,-1.464744,0.975519,-0.137761,21.932941
10490,2062,4.836287,7.94875,10.024523,-1.166573,0.791394,-0.233421,21.938824
10500,1907,5.3678,7.467515,10.936713,-0.811112,0.471372,-0.41275,21.935883
10510,1783,5.899313,7.055712,11.334151,-0.390634,0.168937,-0.614995,21.941765
10520,1742,6.335058,6.605602,11.159374,0.0866,-0.001599,-0.790328,21.941765
10530,1634,6.588843,6.1938,10.714052,0.564634,0.008527,-0.920628,21.918236
10540,1567,6.612785,5.882554,10.117896,0.932086,0.118576,-1.004564,21.927059
10550,1535,6.660669,5.705383,9.332599,1.187623,0.298438,-1.014689,21.935883
10560,1565,6.868965,5.655105,8.528147,1.384539,0.568631,-0.911835,21.924118
10570,1485,7.366959,5.619191,7.967903,1.572662,0.96193,-0.699198,21.935883
10580,1487,7.920019,5.650316,7.785944,1.768778,1.394132,-0.390368,21.935883
10590,1460,8.391677,5.62398,7.773973,1.990208,1.789562,0.00453,21.95647
10600,1469,8.688558,5.410896,7.872135,2.235354,2.106652,0.437798,21.944706
10610,1467,8.698134,4.99191,8.042124,2.452787,2.266796,0.792193,21.927059
10620,1445,8.374918,4.532224,8.094796,2.616395,2.228959,1.012557,21.935883
10630,1462,7.718906,4.1707,7.975086,2.717118,1.981681,1.117011,21.944706
10640,1488,7.036559,3.981557,7.563283,2.727243,1.571063,1.137528,21.93
10650,1499,6.380548,3.912126,7.050924,2.607868,1.07864,1.098625,21.93
10660,1535,5.877765,3.892972,6.449979,2.352331,0.551044,1.003231,21.944706
10670,1558,5.521029,3.933673,5.851429,1.976885,0.033308,0.858542,21.947647
10680,1535,5.245696,3.993528,5.33907,1.476735,-0.435933,0.646172,21.944706
10690,1601,5.114015,4.031836,4.987122,0.873197,-0.829764,0.371715,21.941765
10700,1585,5.042189,4.06296,4.857835,0.208107,-1.150319,0.033041,21.950588
10710,1635,5.001487,4.086902,4.922479,-0.451654,-1.38747,-0.330413,21.944706
10720,1616,4.960786,4.168305,5.11162,-1.027479,-1.526031,-0.658962,21.941765
10730,1699,4.876989,4.230555,5.41329,-1.468741,-1.570263,-0.943011,21.947647
10740,1679,4.817134,4.247314,5.803545,-1.775706,-1.557207,-1.199081,21.944706
10750,1664,4.728549,4.302381,6.189012,-1.951038,-1.503648,-1.437832,21.962353
10760,1678,4.580108,4.436456,6.483498,-2.002732,-1.401859,-1.642475,21.944706
10770,1712,4.426879,4.570531,6.758832,-1.926524,-1.243047,-1.790095,21.959412
10780,1703,4.163517,4.805163,6.852205,-1.71362,-0.968858,-1.839391,21.962353
10790,1841,3.857059,4.915296,6.88333,-1.426107,-0.613663,-1.830597,21.953529
10800,1863,3.284845,5.56173,6.538565,-1.107152,-0.162542,-1.722147,21.938824
10810,1955,2.379837,6.766014,6.078878,-0.821504,0.421011,-1.386404,21.95647
10820,1919,1.508347,7.649475,5.980716,-0.590481,1.016021,-0.895047,21.982941
10830,1847,0.90022,8.030152,6.38773,-0.354928,1.482597,-0.425274,21.968235
10840,1712,0.768539,8.015787,7.33344,-0.097259,1.72268,-0.05196,21.974117
10850,1666,1.086968,7.781156,8.418014,0.215568,1.720282,0.233421,21.962353
10860,1535,1.745373,7.45315,9.306262,0.611798,1.564668,0.473504,21.941765
10870,1558,2.588132,7.062895,9.859323,1.096493,1.41385,0.69147,21.932941
10880,1687,3.404555,6.591237,10.053253,1.633415,1.364021,0.886254,21.947647
10890,1701,4.091691,6.07409,9.895236,2.175933,1.443427,1.046398,21.950588
10900,1641,4.599261,5.554548,9.579201,2.673418,1.622756,1.151651,21.938824
10910,1642,4.900931,5.329493,9.095572,3.050995,1.837792,1.219599,21.953529
10920,1664,5.137957,5.291186,8.537724,3.24951,2.053893,1.290211,21.959412
10930,1682,5.358223,5.269638,8.11395,3.291878,2.255338,1.362423,21.971176
10940,1334,5.549759,5.226542,7.752425,3.218067,2.437332,1.430104,21.941765
10950,2174,5.784391,5.087678,7.551312,3.072579,2.566034,1.475136,21.953529
10960,4095,5.999869,4.958392,7.462727,2.895381,2.615063,1.477801,21.947647
10970,4095,6.162675,4.793192,7.424419,2.720848,2.573761,1.446092,21.953529
10980,1741,6.270414,4.60405,7.364564,2.579357,2.44053,1.394398,21.944706
10990,1198,6.356606,4.429273,7.25922,2.469041,2.244413,1.323253,21.95647
11000,1696,6.40449,4.278439,7.036559,2.387504,2.021651,1.232922,21.962353
11010,1670,6.40449,4.110844,6.744466,2.318757,1.801286,1.122074,21.95647
11020,1663,6.366182,4.012682,6.351817,2.234821,1.602505,0.99204,21.959412
11030,1704,6.26802,3.993528,5.899313,2.123706,1.437032,0.864937,21.959412
11040,1739,6.076484,4.046201,5.485116,1.963296,1.303534,0.749026,21.953529
11050,1709,5.877765,4.165911,5.066131,1.749593,1.185225,0.656297,21.947647
11060,1777,5.719748,4.407725,4.848258,1.49592,1.063985,0.581954,21.95647
11070,1739,5.513846,5.118803,4.407725,1.233188,0.955801,0.533458,21.947647
11080,1840,5.181053,6.162675,3.8403,0.968591,0.925957,0.571562,21.95647
11090,1845,4.833893,7.352593,3.318364,0.753289,1.002165,0.674683,21.944706
11100,1886,4.647145,8.576031,3.20823,0.753822,1.176965,0.756753,21.950588
11110,1947,4.793192,9.277532,3.892972,0.96566,1.277688,0.751424,21.953529
11120,1930,5.21936,9.069236,5.097255,1.234254,1.136729,0.576891,21.962353
11130,1890,5.650316,8.384495,6.217742,1.494322,0.827899,0.261133,21.953529
11140,1926,5.805939,7.548918,6.751649,1.74453,0.486028,-0.091663,21.953529
11150,1968,5.566519,6.86657,6.528988,1.961697,0.201446,-0.431669,21.965294
11160,2001,5.090073,6.435614,5.896919,2.09253,0.035972,-0.708524,21.947647
11170,2009,4.594473,6.265626,5.176264,2.110116,-0.008793,-0.89185,21.959412
11180,2127,4.180276,6.224925,4.639963,1.992074,0.058888,-0.97472,21.95647
11190,2155,3.818752,6.191406,4.268862,1.76558,0.207308,-0.993372,21.962353
11200,2297,3.507505,6.172252,4.053383,1.490857,0.401825,-0.97392,21.950588
11210,2462,3.217807,6.212954,3.986346,1.200413,0.615262,-0.922493,21.953529
11220,2289,2.978387,6.361394,4.03423,0.94381,0.839623,-0.842821,21.935883
11230,2160,2.738967,6.588843,4.086902,0.759951,1.078107,-0.724512,21.95647
11240,1879,2.568978,6.902483,4.206613,0.670953,1.320588,-0.564368,21.959412
11250,1750,2.48997,7.266402,4.424485,0.681877,1.536156,-0.356793,21.95647
11260,1697,2.5187,7.520187,4.730943,0.77807,1.674983,-0.123639,21.950588
11270,1723,2.662352,7.656657,5.058948,0.94381,1.71815,0.108717,21.965294
11280,1598,2.877831,7.64708,5.276821,1.173767,1.689905,0.319489,21.962353
11290,1559,3.117251,7.656657,5.238513,1.450888,1.644606,0.479366,21.947647
11300,1679,3.313575,7.668628,4.99191,1.720015,1.605969,0.589415,21.953529
11310,1683,3.454833,7.649475,4.553771,1.932119,1.604104,0.643773,21.953529
11320,1723,3.543418,7.623138,4.07972,2.07974,1.648337,0.656297,21.959412
11330,1802,3.560178,7.570466,3.65834,2.16181,1.71362,0.634181,21.95647
11340,1667,3.490746,7.513005,3.248932,2.195385,1.78743,0.579556,21.941765
11350,1638,3.409343,7.340622,2.901772,2.203645,1.831397,0.497219,21.962353
11360,1717,3.3447,7.177817,2.628834,2.181262,1.827666,0.38264,21.95647
11370,1716,3.397372,7.158663,2.499547,2.091464,1.761583,0.282983,21.962353
11380,1743,3.608062,7.37893,2.561796,1.899878,1.633415,0.221963,21.947647
11390,1809,3.938462,8.173804,2.523489,1.590781,1.452221,0.231023,21.977058
11400,1840,4.141969,9.619903,1.821988,1.299005,1.352031,0.351997,21.971176
11410,1835,4.340688,10.893618,0.76375,1.298472,1.485528,0.537721,21.962353
11420,1876,4.577713,10.984597,0.316035,1.590515,1.754655,0.643773,21.965294
11430,1895,4.747702,9.809045,0.658405,1.895614,1.907871,0.601939,21.974117
11440,1891,4.730943,8.310274,1.170765,2.069348,1.8711,0.50015,21.965294
11450,1933,4.589684,7.158663,1.414973,2.121041,1.733605,0.458049,21.95647
11460,1930,4.357447,6.459556,1.321599,2.095994,1.568132,0.485228,21.968235
11470,1905,4.058172,6.229713,0.88346,2.060554,1.438365,0.568897,21.962353
11480,1955,3.825934,6.459556,0.234632,2.034708,1.371482,0.693868,21.968235
11490,1967,3.758897,6.964733,-0.380678,1.999801,1.364821,0.839357,21.953529
11500,1905,4.000711,7.587225,-0.864307,1.928123,1.40932,0.981115,21.953529
11510,1935,4.527435,8.082825,-1.113304,1.829798,1.492989,1.045066,21.962353
11520,1941,5.109226,8.406042,-1.21386,1.717617,1.554809,0.960331,21.968235
11530,1878,5.604826,8.508993,-1.127669,1.629418,1.565201,0.734904,21.968235
11540,1921,5.968745,8.561666,-1.017536,1.574527,1.527363,0.446591,21.965294
11550,1954,6.141128,8.626308,-1.01993,1.515372,1.48766,0.162809,21.971176
11560,2032,6.153099,8.75799,-1.113304,1.456217,1.465277,-0.061286,21.965294
11570,2091,5.985504,8.949526,-1.23062,1.41385,1.442894,-0.168937,21.953529
11580,2167,5.798757,9.050082,-1.474828,1.366686,1.408521,-0.168138,21.947647
11590,2159,5.597643,9.095572,-1.776498,1.318456,1.364821,-0.10392,21.962353
11600,2146,5.537788,9.131485,-2.181118,1.262766,1.332312,-0.03011,21.965294
11610,2064,5.540183,9.212888,-2.626439,1.178564,1.357626,0.035173,21.974117
11620,1921,5.559336,9.272743,-2.918532,1.043733,1.439697,0.087133,21.962353
11630,1886,5.533,9.222465,-2.959233,0.890784,1.545216,0.144156,21.977058
11640,1889,5.554548,9.047688,-2.667141,0.765014,1.623023,0.207308,21.971176
11650,1872,5.556942,8.863335,-2.274492,0.684809,1.63155,0.252073,21.95647
11660,1906,5.535394,8.714894,-1.956063,0.645905,1.568132,0.273923,21.977058
11670,1873,5.451597,8.597578,-1.771709,0.637112,1.46208,0.278187,21.965294
11680,1917,5.295974,8.549694,-1.750161,0.655498,1.357626,0.262732,21.962353
11690,1904,5.118803,8.449138,-1.817199,0.697599,1.282484,0.217966,21.953529
11700,1934,4.865018,8.269572,-1.891419,0.76155,1.240383,0.141758,21.953529
11710,1710,4.58729,8.082825,-1.891419,0.832429,1.213204,0.041835,21.953529
11720,1583,4.271256,7.905654,-1.869871,0.893449,1.186025,-0.06475,21.959412
11730,3843,3.933673,7.687782,-1.774103,0.941945,1.154582,-0.155081,21.950588
11740,4095,3.65834,7.460332,-1.714248,0.968591,1.121807,-0.219032,21.950588
11750,4095,3.459621,7.376535,-1.73819,0.967259,1.112481,-0.257936,21.944706
11760,1457,3.325546,7.40766,-1.881842,0.949406,1.148453,-0.264331,21.950588
11770,1751,3.241749,7.5561,-2.051831,0.930753,1.241715,-0.234221,21.95647
11780,1936,3.203442,7.690176,-2.185906,0.905706,1.370417,-0.158012,21.95647
11790,1933,3.236961,7.750031,-2.217031,0.872931,1.520168,-0.049029,21.959412
11800,1936,3.368642,7.73806,-2.166753,0.826567,1.654466,0.069813,21.962353
11810,1896,3.591303,7.673417,-1.956063,0.764214,1.749326,0.176398,21.965294
11820,2011,3.888184,7.601591,-1.702277,0.697066,1.795424,0.256337,21.965294
11830,2002,4.216189,7.57286,-1.551443,0.638711,1.800487,0.304034,21.953529
11840,2043,4.510676,7.64708,-1.410185,0.6086,1.772508,0.323485,21.950588
11850,2000,4.709395,7.70933,-1.364695,0.603271,1.710423,0.320021,21.959412
11860,2047,4.79798,7.819463,-1.364695,0.599807,1.643274,0.304034,21.950588
11870,2137,4.817134,7.955932,-1.446098,0.593412,1.552677,0.278187,21.938824
11880,2096,4.764462,8.099585,-1.51553,0.585418,1.457017,0.25234,21.965294
11890,2170,4.666299,8.157045,-1.575385,0.55664,1.372015,0.23049,21.962353
11900,2183,4.548983,8.173804,-1.577779,0.525464,1.311795,0.201712,21.959412
11910,2211,4.398149,8.226477,-1.575385,0.507611,1.257436,0.17853,21.974117
11920,2283,4.268862,8.283937,-1.587356,0.483096,1.220398,0.163608,21.965294
11930,2326,4.209007,8.307879,-1.587356,0.457783,1.212404,0.150818,21.959412
11940,2391,4.211401,8.343793,-1.458069,0.442861,1.243314,0.13936,21.974117
11950,2497,4.254497,8.39886,-1.35033,0.451654,1.284616,0.131366,21.974117
11960,2512,4.390966,8.401254,-1.187524,0.477234,1.324851,0.127369,21.959412
11970,2479,4.489128,8.394072,-1.000776,0.523599,1.347234,0.120441,21.982941
11980,2437,4.568137,8.379706,-0.871489,0.578757,1.322187,0.099124,21.968235
11990,2554,4.575319,8.413225,-0.806846,0.632315,1.23985,0.075409,21.953529
12000,2543,4.577713,8.418014,-0.835576,0.66589,1.12234,0.054891,21.950588
12010,2442,4.532224,8.303091,-1.070208,0.690138,1.0011,0.022116,21.968235
12020,2284,4.412514,8.078036,-1.35033,0.722113,0.920095,-0.026913,21.971176
12030,2150,4.237737,7.852982,-1.527501,0.736769,0.879859,-0.089265,21.968235
12040,2085,4.050989,7.78355,-1.781286,0.693335,0.876928,-0.129234,21.982941
12050,1947,3.885789,7.884106,-1.980005,0.605936,0.897446,-0.133764,21.977058
12060,1897,3.8403,8.092402,-2.185906,0.479899,0.927023,-0.134031,21.98
12070,1856,3.967192,8.310274,-2.276886,0.379709,0.97845,-0.12657,21.991764
12080,1902,4.206613,8.384495,-2.149993,0.336276,1.038138,-0.118576,21.985882
12090,1959,4.477157,8.406042,-1.941698,0.335476,1.066649,-0.12124,21.994705
12100,1920,4.738125,8.389283,-1.692701,0.352796,1.058922,-0.13483,21.98
12110,1953,4.967968,8.348581,-1.47004,0.383972,1.013357,-0.155614,21.977058
12120,1986,5.116409,8.348581,-1.355118,0.418879,0.93555,-0.179063,21.971176
12130,2010,5.226542,8.542512,-1.359907,0.442861,0.842288,-0.197715,21.985882
12140,2070,5.425261,9.148245,-1.407791,0.373314,0.751957,-0.195051,21.988823
12150,2110,5.781997,10.350134,-1.757344,0.121773,0.680012,-0.16574,21.982941
12160,2063,6.394913,11.537658,-2.219425,-0.118576,0.703994,-0.114046,21.977058
12170,2064,7.108385,11.808203,-2.003947,-0.1303,0.822303,-0.100723,21.974117
12180,2109,7.61835,11.384429,-1.197101,-0.033574,0.876662,-0.172668,22.003529
12190,2151,7.64708,10.876859,-0.328006,-0.002931,0.758885,-0.293109,21.991764
12200,2185,7.326257,10.656591,0.138864,-0.113779,0.488959,-0.387703,21.991764
12210,2193,6.782773,10.716447,0.043096,-0.3043,0.177997,-0.448456,21.977058
12220,2182,6.119579,10.87207,-0.399832,-0.459381,-0.028511,-0.493222,21.98
12230,2180,5.353435,10.989386,-0.648829,-0.552377,-0.069813,-0.513207,21.977058
12240,2213,4.654328,10.943896,-0.531513,-0.617926,0.014389,-0.50841,21.988823
12250,2192,4.048595,10.699687,-0.138864,-0.64324,0.14309,-0.503081,21.971176
12260,2210,3.409343,10.290278,0.399832,-0.595277,0.255804,-0.516937,21.965294
12270,2180,2.870648,9.792285,0.88346,-0.50841,0.338141,-0.555574,21.985882
12280,2218,2.391808,9.263166,1.371878,-0.438331,0.386903,-0.599274,21.991764
12290,2269,1.977611,8.896853,1.742979,-0.419145,0.410352,-0.629651,21.98
12300,2288,1.656788,8.858546,1.96564,-0.445525,0.43993,-0.621391,21.982941
12310,2403,1.400608,9.105149,2.066196,-0.450322,0.537455,-0.554775,21.982941
12320,2329,1.240196,9.416395,2.1883,-0.369317,0.729841,-0.429804,21.95647
12330,2293,1.25935,9.703699,2.439692,-0.209706,0.985378,-0.273124,21.962353
12340,2176,1.405396,9.878476,2.772485,0.02558,1.26623,-0.110049,21.959412
12350,2032,1.604115,9.904813,3.191471,0.310695,1.524965,0.020784,21.962353
12360,1968,1.872266,9.809045,3.517082,0.63045,1.746395,0.120175,21.968235
12370,1993,2.161964,9.591172,3.634398,0.962196,1.966227,0.218766,21.985882
12380,1998,2.432509,9.308656,3.440468,1.275556,2.209507,0.329881,21.985882
12390,1905,2.693477,8.939949,3.110068,1.530294,2.495421,0.456983,21.977058
12400,1883,2.987964,8.554482,2.851494,1.719482,2.782135,0.600606,21.985882
12410,1920,3.361459,8.2169,2.628834,1.840989,3.032077,0.742631,21.994705
12420,1872,3.811569,8.008605,2.389413,1.950505,3.19755,0.864937,21.997646
12430,1895,4.414908,7.996634,2.087744,2.072545,3.239917,0.941678,21.994705
12440,1717,5.058948,8.075643,1.716643,2.196983,3.11095,0.958732,21.991764
12450,1475,5.729325,8.015787,1.223437,2.280386,2.830364,0.899844,22.003529
12460,3408,6.174646,7.754819,0.665588,2.289979,2.477035,0.765547,21.953529
12470,4095,6.320693,7.371747,0.114922,2.224162,2.113047,0.599008,21.98
12480,4095,6.234501,6.955156,-0.356736,2.090931,1.783966,0.449789,21.98
12490,1039,5.999869,6.574478,-0.725443,1.899611,1.516438,0.344802,21.977058
12500,1479,5.793968,6.323087,-1.007959,1.6526,1.292609,0.29151,21.985882
12510,1735,5.590461,6.167464,-1.197101,1.351764,1.093562,0.26966,21.994705
12520,1808,5.425261,6.138733,-1.283292,1.007228,0.88359,0.249675,21.994705
12530,1444,5.243302,6.198588,-1.309628,0.629651,0.649902,0.21317,21.991764
12540,1502,4.999093,6.380548,-1.319205,0.268328,0.412217,0.159611,21.994705
12550,1497,4.594473,6.639122,-1.367089,-0.033308,0.184658,0.095394,21.994705
12560,1591,4.144363,7.058106,-1.477222,-0.256603,-0.014655,0.022916,21.985882
12570,1642,3.722984,7.455544,-1.51553,-0.431669,-0.148153,-0.051427,21.98
12580,1657,3.392584,7.716512,-1.388637,-0.598475,-0.190521,-0.104453,21.982941
12590,1666,3.167529,7.850587,-1.051055,-0.758352,-0.144423,-0.143623,21.977058
12600,1675,3.028665,7.958326,-0.553061,-0.875063,-0.037571,-0.176132,21.965294
12610,1714,2.983175,8.037335,0.043096,-0.931286,0.083936,-0.195051,21.968235
12620,1869,3.05979,8.185776,0.746991,-0.938481,0.164407,-0.175865,21.977058
12630,1981,3.289633,8.358158,1.374272,-0.869201,0.193452,-0.114845,21.982941
12640,1787,3.603274,8.566454,1.860295,-0.663492,0.193718,-0.025314,21.988823
12650,1812,3.952827,8.767567,2.078167,-0.311495,0.208374,0.081271,21.982941
12660,1763,4.22816,8.963891,2.056619,0.133764,0.249409,0.193452,21.991764
12670,1814,4.419696,9.083601,1.685518,0.582221,0.299504,0.285914,21.994705
12680,2015,4.589684,9.210494,1.084573,0.940613,0.33441,0.350132,21.997646
12690,2085,4.735731,9.267955,0.390255,1.150585,0.32615,0.384505,21.994705
12700,2157,4.833893,9.203311,-0.244209,1.162309,0.265397,0.37891,21.988823
12710,2197,4.891354,9.169792,-0.794875,1.001899,0.145489,0.34427,21.982941
12720,2087,5.015852,9.059659,-1.161188,0.807381,-0.016521,0.314692,21.991764
12730,2057,5.243302,8.822633,-1.407791,0.70053,-0.174,0.320821,21.982941
12740,2028,5.549759,8.554482,-1.649605,0.654432,-0.289112,0.337342,21.98
12750,1904,5.726931,8.532935,-2.044648,0.576625,-0.353063,0.325351,21.982941
12760,1810,5.712565,8.942344,-2.63841,0.373314,-0.37891,0.276055,21.977058
12770,1733,5.612009,9.725247,-3.136404,0.012257,-0.392499,0.203577,21.985882
12780,1711,5.638345,10.682928,-3.351882,-0.422343,-0.396496,0.174,21.991764
12790,1652,5.784391,11.370064,-2.99754,-0.81804,-0.379975,0.22596,21.988823
12800,1641,6.023811,11.477803,-2.161964,-1.094095,-0.349066,0.314959,21.988823
12810,1687,6.224925,11.027693,-0.893037,-1.211072,-0.314959,0.375979,21.991764
12820,1725,6.356606,10.383653,0.457293,-1.16604,-0.29977,0.383706,22.000587
12830,1699,6.318298,9.947908,1.422156,-1.001899,-0.330946,0.346668,22.000587
12840,1773,6.129156,9.722853,1.819593,-0.748227,-0.381841,0.290711,22.000587
12850,1741,5.705383,9.543288,1.628057,-0.427406,-0.389568,0.255271,21.988823
12860,1765,5.212177,9.31105,1.089362,-0.094861,-0.306165,0.280851,21.997646
12870,1815,4.898537,8.829816,0.608127,0.182527,-0.125504,0.376511,21.997646
12880,1809,4.8722,8.204929,0.35913,0.375179,0.105786,0.512674,21.991764
12890,1779,5.118803,7.424419,0.409408,0.490557,0.346401,0.644306,21.985882
12900,1787,5.432444,6.64391,0.497994,0.573694,0.566233,0.733838,21.982941
12910,1797,5.71496,6.035782,0.68953,0.641908,0.740233,0.768744,21.968235
12920,1763,6.042965,5.585672,0.811634,0.688539,0.847084,0.755954,21.988823
12930,1798,6.411672,5.32231,0.859518,0.692003,0.910769,0.694934,21.985882
12940,1786,6.756437,5.262455,0.732626,0.63045,0.95207,0.603005,21.997646
12950,1812,7.07726,5.398925,0.545878,0.507878,0.974187,0.506012,21.997646
12960,1814,7.357382,5.71496,0.296881,0.348,0.968591,0.414616,21.982941
12970,1805,7.630321,6.16507,-0.021548,0.172934,0.924092,0.340806,21.997646
12980,1835,7.862558,6.605602,-0.318429,-0.001332,0.84362,0.282717,21.985882
12990,1767,8.051701,6.943185,-0.538695,-0.177464,0.734904,0.231822,22.00647
13000,1817,8.121132,7.096414,-0.579397,-0.375979,0.611531,0.177464,22.000587
13010,1856,8.00621,7.034164,-0.407014,-0.610466,0.480432,0.115911,21.994705
13020,1941,7.773973,6.852205,-0.040701,-0.871599,0.350398,0.038104,22.012352
13030,1995,7.443573,6.679823,0.414197,-1.11861,0.214236,-0.045299,22.009411
13040,2083,7.156269,6.619968,0.799663,-1.325384,0.0874,-0.125504,22.012352
13050,2080,6.979098,6.667852,1.134852,-1.473005,-0.00453,-0.194518,21.997646
13060,2064,6.936002,6.816292,1.436521,-1.526297,-0.024781,-0.252606,21.997646
13070,1994,6.933608,7.079654,1.723825,-1.477534,0.017587,-0.302701,21.994705
13080,1805,6.931214,7.400477,2.06859,-1.323253,0.089531,-0.329881,22.003529
13090,1766,6.890512,7.673417,2.343924,-1.077041,0.162276,-0.329614,21.988823
13100,1715,6.789956,7.841011,2.592921,-0.767678,0.22143,-0.31256,21.994705
13110,1681,6.703765,7.817069,2.762909,-0.440995,0.266729,-0.285914,21.991764
13120,1744,6.591237,7.656657,2.856283,-0.130034,0.30883,-0.264864,22.009411
13130,1733,6.440403,7.477092,2.738967,0.159611,0.368251,-0.252873,22.009411
13140,1792,6.282385,7.354988,2.466028,0.414349,0.448456,-0.239017,22.012352
13150,1806,6.189012,7.252037,2.135628,0.621657,0.550511,-0.207574,21.997646
13160,1848,6.153099,7.163452,1.798046,0.771142,0.666156,-0.158545,22.009411
13170,1852,6.229713,7.084443,1.522712,0.854279,0.770343,-0.096459,21.991764
13180,1495,6.301539,7.017405,1.347936,0.87,0.833495,-0.043966,21.994705
13190,2452,6.447585,6.938396,1.223437,0.834827,0.842021,-0.011991,21.997646
13200,4095,6.636727,6.840234,1.204283,0.775939,0.813776,-0.001865,21.991764
13210,4095,6.859388,6.737284,1.201889,0.718649,0.767945,-0.010392,22.00647
13220,2237,7.117962,6.696582,1.302446,0.664025,0.715185,-0.035173,22.003529
13230,1417,7.376535,6.775591,1.441309,0.597142,0.645639,-0.070613,22.000587
13240,1871,7.532158,6.959944,1.56102,0.519868,0.540119,-0.116178,21.991764
13250,1868,7.501034,7.170634,1.575385,0.453519,0.398628,-0.164674,21.985882
13260,1843,7.244854,7.405266,1.398214,0.408753,0.251274,-0.211571,21.985882
13270,1875,6.859388,7.637504,1.015141,0.380508,0.139093,-0.259002,22.00647
13280,1895,6.370971,7.972692,0.579397,0.340539,0.107118,-0.297372,22.00647
13290,1865,5.8634,8.293514,0.301669,0.266995,0.164674,-0.308564,22.00647
13300,1891,5.499481,8.588001,0.349553,0.153216,0.274456,-0.275522,22.009411
13310,1935,5.312734,8.750807,0.667982,0.034374,0.39623,-0.200913,21.991764
13320,1930,5.288792,8.798691,1.113304,-0.02185,0.496153,-0.114845,22.003529
13330,2030,5.329493,8.765172,1.537078,0.018652,0.554775,-0.058888,22.00647
13340,2032,5.379771,8.690952,1.896208,0.148153,0.572894,-0.039703,21.997646
13350,1954,5.406107,8.549694,2.123657,0.325884,0.564101,-0.038637,22.003529
13360,2000,5.372589,8.346188,2.193089,0.514006,0.545182,-0.0437,22.015295
13370,2117,5.295974,8.140285,2.011129,0.685608,0.530527,-0.039436,22.003529
13380,2093,5.24809,8.030152,1.661576,0.822303,0.529994,-0.022649,22.003529
13390,2047,5.245696,7.989451,1.18513,0.921427,0.542518,0.009593,22.015295
13400,2126,5.33907,7.943961,0.814029,0.986977,0.559305,0.055424,22.009411
13410,2166,5.501875,7.896077,0.502782,1.012025,0.562236,0.099124,22.018236
13420,2206,5.616797,7.833828,0.203507,0.986711,0.539587,0.128435,22.012352
13430,2321,5.650316,7.757214,0.007183,0.907838,0.485228,0.140692,22.021177
13440,2401,5.597643,7.711724,-0.225055,0.771942,0.392766,0.128168,22.015295
13450,2320,5.444415,7.750031,-0.579397,0.587816,0.276055,0.086867,22.021177
13460,2324,5.257667,7.953538,-0.955287,0.390368,0.174266,0.029844,22.018236
13470,2285,5.032612,8.133103,-1.292869,0.229957,0.138827,-0.009593,22.009411
13480,2114,4.824317,8.283937,-1.374272,0.103654,0.187057,-0.017054,22.009411
13490,2021,4.58729,8.37013,-1.247379,-0.005596,0.273923,-0.010658,22.009411
13500,1872,4.285621,8.415619,-0.931344,-0.092995,0.340006,-0.006662,22.012352
13510,1776,4.010288,8.485051,-0.488417,-0.167072,0.358925,0.005596,22.021177
13520,1779,3.74932,8.628703,0.033519,-0.236885,0.328282,0.037305,22.003529
13530,1772,3.519476,8.868123,0.45011,-0.289378,0.262466,0.085534,22.015295
13540,1765,3.359065,9.141062,0.684742,-0.303234,0.204377,0.131632,22.00647
13550,1643,3.32794,9.457097,0.691924,-0.265663,0.2169,0.155081,21.994705
13560,1771,3.414132,9.698911,0.720655,-0.193718,0.348266,0.140159,21.997646
13570,1660,3.53863,9.682152,1.010353,-0.096992,0.57849,0.082603,22.00647
13580,1572,3.536236,9.548077,1.565808,0.03091,0.81804,0.010126,22.00647
13590,1744,3.49314,9.375694,2.099715,0.169737,0.974187,-0.031443,22.02706
13600,1718,3.483563,9.28232,2.389413,0.331479,1.022949,-0.016521,22.009411
13610,1661,3.588908,9.277532,2.375048,0.511075,1.010959,0.036239,22.00647
13620,1673,3.828329,9.275137,2.092532,0.683743,1.005363,0.088199,22.003529
13630,1655,4.161122,9.239224,1.742979,0.847084,1.015222,0.136695,22.015295
13640,1648,4.551377,9.131485,1.383849,0.989109,1.03041,0.171335,22.018236
13650,1717,4.821922,8.908825,0.984017,1.093029,1.033608,0.181727,22.035883
13660,1749,5.032612,8.688558,0.562637,1.149519,1.008294,0.172934,22.02706
13670,1683,5.149928,8.470686,0.117316,1.138328,0.95287,0.14842,22.00647
13680,1670,5.178658,8.252813,-0.287304,1.041868,0.875596,0.115112,22.003529
13690,1737,5.147533,8.104373,-0.565032,0.86547,0.776205,0.083403,22.003529
13700,1753,5.149928,8.020576,-0.696713,0.63125,0.663225,0.057023,22.009411
13710,1808,5.169082,8.039729,-0.739808,0.377844,0.541185,0.031176,22.024118
13720,1775,5.161899,8.195353,-0.596156,0.145755,0.42634,0.003198,22.012352
13730,1789,5.142745,8.506598,-0.306458,-0.026913,0.325617,-0.021317,22.024118
13740,1802,5.109226,8.856153,-0.02873,-0.119908,0.243813,-0.044499,22.015295
13750,1859,4.972757,9.222465,0.167594,-0.129501,0.188922,-0.065816,22.000587
13760,1854,4.79798,9.476251,0.335188,-0.057556,0.162542,-0.082337,22.000587
13770,1846,4.52983,9.631873,0.462081,0.071412,0.162809,-0.087933,22.00647
13780,1929,4.283227,9.653421,0.557849,0.219565,0.176132,-0.077274,22.018236
13790,2042,4.086902,9.56723,0.56982,0.363188,0.203844,-0.053559,22.024118
13800,2064,3.916914,9.49301,0.418985,0.486827,0.252873,-0.021583,22.015295
13810,2066,3.830723,9.435549,0.146046,0.598475,0.32615,0.011991,22.00647
13820,2000,3.813963,9.378088,-0.11971,0.70053,0.413816,0.041835,22.012352
13830,1824,3.89776,9.232041,-0.351948,0.776205,0.490824,0.063951,22.015295
13840,1726,4.01747,8.983045,-0.521936,0.813776,0.540652,0.070613,22.015295
13850,1726,4.118027,8.695741,-0.610521,0.811911,0.558505,0.06102,22.012352
13860,1709,4.232949,8.432379,-0.679953,0.774074,0.54385,0.037838,22.02706
13870,1708,4.311957,8.293514,-0.811634,0.706925,0.506012,0.006395,21.997646
13880,1687,4.395754,8.224083,-0.950498,0.623522,0.456184,-0.021317,22.009411
13890,1649,4.481946,8.23366,-1.074997,0.536655,0.401293,-0.03917,22.021177
13900,1691,4.577713,8.305486,-1.225831,0.455917,0.346401,-0.049029,22.015295
13910,1693,4.699818,8.360553,-1.321599,0.389568,0.289645,-0.062352,22.015295
13920,1663,4.783615,8.437167,-1.42455,0.337342,0.232622,-0.085002,22.024118
13930,1285,4.817134,8.482656,-1.472434,0.286447,0.170802,-0.106851,22.02706
13940,1999,4.759673,8.513782,-1.491588,0.217966,0.110315,-0.119642,22.018236
13950,4095,4.692636,8.540117,-1.474828,0.130833,0.057822,-0.120974,22.021177
13960,4095,4.63278,8.599973,-1.414973,0.027979,0.020518,-0.112447,22.015295
13970,2352,4.613626,8.700529,-1.300052,-0.086867,-0.004796,-0.098591,22.024118
13980,1131,4.692636,8.781932,-1.127669,-0.177997,-0.017853,-0.083669,22.003529
13990,1739,4.711789,8.875306,-1.039083,-0.208374,-0.022916,-0.074876,22.000587
14000,1714,4.663905,8.872911,-0.873884,-0.193718,-0.025314,-0.079139,22.003529
14010,1675,4.520253,8.722076,-0.677559,-0.171069,-0.032775,-0.088732,22.02706
14020,1719,4.333505,8.542512,-0.514753,-0.168937,-0.051427,-0.09193,22.018236
14030,1742,4.161122,8.437167,-0.37589,-0.185458,-0.072744,-0.085534,22.02706
14040,1782,4.122815,8.389283,-0.304064,-0.196116,-0.088732,-0.067681,22.00647
14050,1826,4.173094,8.456321,-0.296881,-0.170802,-0.089798,-0.027446,22.009411
14060,1872,4.326323,8.516175,-0.318429,-0.108184,-0.075675,0.028511,22.012352
14070,1844,4.565742,8.556877,-0.363919,-0.026113,-0.057023,0.082337,22.018236
14080,1888,4.793192,8.453926,-0.354342,0.045565,-0.053559,0.119908,22.024118
14090,1917,4.960786,8.343793,-0.35913,0.08287,-0.081005,0.13856,22.009411
14100,1943,5.046977,8.185776,-0.368707,0.076208,-0.146554,0.145489,22.012352
14110,1957,5.061342,8.09719,-0.428562,0.037305,-0.240882,0.154548,22.02706
14120,1980,5.044583,8.078036,-0.545878,-0.039703,-0.336542,0.175332,22.030001
14130,2085,4.996699,8.123527,-0.799663,-0.153482,-0.420744,0.182527,22.015295
14140,2070,4.817134,8.180987,-1.079785,-0.274989,-0.477767,0.152417,22.030001
14150,2131,4.517859,8.281544,-1.249773,-0.373047,-0.498018,0.091663,22.015295
14160,2153,4.180276,8.449138,-1.328782,-0.454585,-0.469773,0.029044,22.012352
14170,2230,3.907337,8.633492,-1.273715,-0.549179,-0.398894,-0.005862,22.018236
14180,2269,3.763685,8.693346,-1.041478,-0.662692,-0.287513,-0.006662,22.012352
14190,2312,3.804387,8.734048,-0.603339,-0.751957,-0.162542,0.006395,22.015295
14200,2304,3.969586,8.798691,-0.040701,-0.777538,-0.056757,0.018919,22.021177
14210,2271,4.192247,8.899248,0.52433,-0.72691,0.006662,0.028245,22.024118
14220,2239,4.469975,9.040505,0.967257,-0.599274,0.028778,0.032242,22.038824
14230,2096,4.72376,9.165004,1.221043,-0.401825,0.03011,0.039436,22.02706
14240,1952,4.960786,9.181764,1.25935,-0.155881,0.032242,0.048763,22.015295
14250,1856,5.073313,9.0429,1.079785,0.101522,0.045299,0.058622,22.021177
14260,1779,5.164293,8.822633,0.746991,0.322953,0.070613,0.077008,22.02706
14270,1717,5.255273,8.595184,0.308852,0.478567,0.110848,0.105786,22.021177
14280,1686,5.425261,8.391677,-0.102951,0.5649,0.158279,0.13936,22.018236
14290,1681,5.626374,8.23366,-0.40462,0.582753,0.197182,0.17027,22.030001
14300,1675,5.877765,8.051701,-0.545878,0.546248,0.208107,0.19585,22.024118
14310,1703,6.16507,7.929596,-0.509965,0.472971,0.170802,0.214769,22.032942
14320,1710,6.382942,7.776367,-0.4956,0.386371,0.077274,0.216101,22.024118
14330,1722,6.490681,7.699753,-0.596156,0.301636,-0.06102,0.195051,22.02706
14340,1759,6.483498,7.70933,-0.842759,0.207041,-0.211838,0.157479,22.035883
14350,1745,6.356606,7.752425,-1.146823,0.101789,-0.33894,0.116444,22.015295
14360,1797,6.112397,7.793127,-1.371878,-0.017587,-0.431936,0.077008,22.012352
14370,1810,5.820304,7.821857,-1.49877,-0.14309,-0.489225,0.0429,22.015295
14380,1827,5.56173,7.855376,-1.450886,-0.255271,-0.509743,0.024248,22.018236
14390,1835,5.374983,7.898471,-1.35033,-0.334943,-0.496953,0.015455,22.003529
14400,1839,5.276821,7.987057,-1.201889,-0.37438,-0.451387,0.009593,22.009411
14410,1844,5.159505,8.145074,-1.096544,-0.376245,-0.385571,0.001332,22.02706
14420,1845,4.999093,8.327033,-1.043872,-0.338674,-0.323485,-0.006662,22.047647
14430,1863,4.833893,8.47308,-1.043872,-0.274456,-0.276588,-0.011458,22.02706
14440,1870,4.680665,8.535329,-1.077391,-0.206775,-0.234221,-0.012257,22.018236
14450,1868,4.584896,8.487445,-1.122881,-0.151884,-0.178263,-0.010392,22.02706
14460,1874,4.551377,8.394072,-1.161188,-0.109783,-0.092995,0.000266,22.041765
14470,1901,4.592079,8.310274,-1.134852,-0.07834,0.001865,0.014655,22.032942
14480,1921,4.747702,8.214506,-1.072602,-0.047164,0.10392,0.031176,22.024118
14490,2002,5.001487,8.209718,-0.967257,-0.011724,0.185191,0.047697,22.024118
14500,2041,5.284003,8.185776,-0.857124,0.034374,0.228358,0.06555,22.041765
14510,2096,5.547365,8.169016,-0.828394,0.094861,0.235819,0.080205,22.035883
14520,2156,5.765238,8.130709,-0.823605,0.158012,0.216101,0.0866,22.030001
14530,2161,5.947197,8.082825,-0.821211,0.212371,0.177997,0.086867,22.038824
14540,2055,6.050148,8.025364,-0.861913,0.2606,0.135363,0.098325,22.024118
14550,1875,6.105214,8.037335,-0.940921,0.305366,0.094061,0.125237,22.02706
14560,1815,6.181829,8.082825,-1.09415,0.345335,0.056224,0.162542,22.021177
14570,1806,6.229713,8.123527,-1.175553,0.371982,0.016787,0.201446,22.032942
14580,1839,6.26802,8.130709,-1.283292,0.378377,-0.026113,0.237951,22.021177
14590,1850,6.301539,8.09719,-1.388637,0.366919,-0.068481,0.263531,22.041765
14600,1888,6.265626,8.003817,-1.51553,0.357326,-0.096726,0.275789,22.038824
14610,1850,6.14831,7.888895,-1.671153,0.369583,-0.111914,0.270726,22.041765
14620,1865,5.995081,7.78355,-1.821988,0.399161,-0.114312,0.259801,22.044706
14630,1893,5.798757,7.685388,-1.991976,0.425541,-0.107118,0.258202,22.041765
14640,1778,5.674258,7.601591,-2.097321,0.433002,-0.095127,0.273923,22.038824
14650,1505,5.626374,7.532158,-2.20506,0.412217,-0.073011,0.298704,22.018236
14660,3002,5.650316,7.493851,-2.269703,0.37811,-0.042101,0.316557,22.015295
14670,4095,5.781997,7.489063,-2.346318,0.340006,-0.001865,0.318689,22.030001
14680,4095,5.880159,7.52737,-2.427721,0.313093,0.035972,0.306965,22.02706
14690,1686,6.026206,7.510611,-2.475605,0.321887,0.058355,0.293642,22.041765
14700,1535,6.205771,7.508216,-2.585738,0.351198,0.069813,0.279253,22.035883
14710,1891,6.370971,7.460332,-2.691083,0.3917,0.076208,0.266462,22.050589
14720,1877,6.473921,7.340622,-2.738967,0.425274,0.073277,0.265663,22.047647
14730,1885,6.485892,7.055712,-2.650381,0.4354,0.050095,0.280319,22.032942
14740,1920,6.481104,6.679823,-2.63841,0.40902,0.008793,0.288845,22.035883
14750,1905,6.370971,6.359,-2.645593,0.351464,-0.04743,0.281384,22.030001
14760,1927,6.153099,6.155493,-2.798822,0.279786,-0.099923,0.264864,22.035883
14770,1963,5.942409,6.052542,-2.949656,0.198515,-0.141492,0.263265,22.030001
14780,2006,5.808333,6.038177,-3.150769,0.094061,-0.167871,0.277387,22.030001
14790,2001,5.801151,6.10282,-3.423708,-0.041302,-0.175332,0.292043,22.044706
14800,2047,5.89213,6.172252,-3.632004,-0.211305,-0.16494,0.296839,22.024118
14810,2128,6.081272,6.22253,-3.627216,-0.391167,-0.137761,0.269926,22.038824
14820,2093,6.28478,6.277597,-3.363853,-0.549179,-0.103654,0.207041,22.044706
14830,2147,6.375759,6.337452,-2.89459,-0.659761,-0.079939,0.124704,22.02706
14840,2205,6.375759,6.505046,-2.422932,-0.719449,-0.09113,0.04743,22.024118
14850,2182,6.330269,6.732495,-2.061408,-0.743963,-0.140959,-0.010392,22.02706
14860,2213,6.251261,6.945579,-1.896208,-0.7389,-0.211571,-0.041568,22.035883
14870,2330,6.210559,7.144298,-1.872266,-0.702928,-0.270193,-0.050095,22.024118
14880,2359,6.229713,7.266402,-1.908179,-0.650968,-0.285381,-0.056757,22.024118
14890,2471,6.203377,7.323863,-1.94888,-0.596609,-0.259801,-0.070613,22.024118
14900,2457,6.155493,7.273585,-1.922544,-0.540119,-0.220897,-0.08207,22.030001
14910,2448,6.131551,7.165846,-1.836353,-0.48656,-0.193985,-0.08207,22.041765
14920,2467,6.155493,7.067683,-1.836353,-0.456717,-0.183326,-0.07008,22.035883
14930,2499,6.303933,6.983886,-1.841141,-0.466576,-0.185191,-0.056224,22.02706
14940,2376,6.471527,7.015011,-1.927332,-0.503348,-0.195583,-0.054891,22.035883
14950,2196,6.627151,7.096414,-2.013524,-0.543583,-0.219832,-0.070879,22.030001
14960,2077,6.708553,7.146692,-2.080561,-0.583286,-0.264331,-0.098858,22.050589
14970,1964,6.675035,7.16824,-2.061408,-0.633115,-0.317357,-0.132965,22.030001
14980,1889,6.519411,7.151481,-1.970428,-0.699997,-0.367985,-0.169204,22.044706
14990,1858,6.390124,7.16824,-1.917756,-0.778337,-0.408753,-0.201179,22.024118
15000,1856,6.289568,7.264008,-1.881842,-0.851348,-0.442061,-0.226493,22.00647
15010,1842,6.236896,7.450756,-1.905785,-0.908371,-0.471372,-0.249675,22.021177
15020,1837,6.16507,7.682993,-1.960851,-0.950472,-0.496153,-0.272325,22.02706
15030,1847,6.107608,7.850587,-1.934515,-0.991773,-0.522533,-0.289645,22.021177
15040,1807,6.038177,7.934384,-1.84593,-1.046665,-0.55664,-0.307764,22.032942
15050,1964,5.918467,7.936779,-1.757344,-1.110882,-0.595544,-0.329348,22.047647
15060,1865,5.753267,7.996634,-1.714248,-1.180695,-0.63125,-0.357326,22.041765
15070,1870,5.597643,8.178593,-1.702277,-1.271026,-0.662959,-0.383972,22.05353
15080,2063,5.525817,8.413225,-1.630451,-1.404257,-0.678147,-0.39996,22.02706
15090,1934,5.590461,8.698134,-1.429338,-1.597176,-0.669087,-0.406089,22.024118
15100,1878,5.870583,9.105149,-1.101333,-1.828998,-0.637378,-0.409819,22.032942
15110,1945,6.26802,9.593566,-0.742203,-2.065884,-0.588882,-0.41808,22.038824
15120,1947,6.607996,9.928755,-0.294487,-2.210839,-0.537988,-0.436732,22.032942
15130,1904,6.816292,9.928755,0.399832,-2.187657,-0.507078,-0.465776,22.044706
15140,1924,6.801927,9.799467,1.151611,-2.042169,-0.537721,-0.494288,22.035883
15150,1991,6.653487,9.643845,1.759738,-1.892683,-0.628851,-0.497752,22.035883
15160,2027,6.409278,9.574412,2.149993,-1.777838,-0.745029,-0.472971,22.021177
15170,1939,6.088455,9.483433,2.176329,-1.661394,-0.830031,-0.423142,22.015295
15180,1931,5.750873,9.330204,1.991976,-1.520435,-0.823902,-0.373047,22.015295
15190,2017,5.334281,8.983045,1.853112,-1.362956,-0.729574,-0.344003,22.044706
15200,2142,4.908113,8.456321,1.855506,-1.220665,-0.595544,-0.334144,22.041765
15210,2186,4.5418,7.893683,2.066196,-1.119409,-0.477234,-0.324551,22.030001
15220,2185,4.256891,7.376535,2.284068,-1.073311,-0.402891,-0.302701,22.047647
15230,2193,4.094085,6.967127,2.525883,-1.08317,-0.366119,-0.266196,22.038824
15240,2177,4.07972,6.777985,2.794033,-1.137262,-0.355727,-0.2169,22.032942
15250,1984,4.254497,6.789956,3.131616,-1.203078,-0.357859,-0.159345,22.02706
15260,2067,4.592079,7.005434,3.457227,-1.241715,-0.361856,-0.114845,22.018236
15270,1871,4.958392,7.469909,3.634398,-1.204943,-0.350132,-0.110315,22.035883
15280,1878,5.269638,8.123527,3.670311,-1.054925,-0.312294,-0.148953,22.038824
15290,1877,5.542577,8.978256,3.651158,-0.819905,-0.266196,-0.205976,22.038824
15300,1985,5.784391,9.816227,3.6751,-0.571296,-0.257403,-0.241415,22.030001
15310,1975,6.026206,10.383653,3.720589,-0.365853,-0.312028,-0.233954,22.035883
15320,2021,6.272809,10.563218,3.737349,-0.180395,-0.403158,-0.192652,22.032942
15330,2006,6.473921,10.326192,3.608062,0.032775,-0.487626,-0.152949,22.035883
15340,2147,6.505046,9.85214,3.189077,0.258735,-0.526263,-0.141758,22.041765
15350,1577,6.339846,9.279925,2.631228,0.433268,-0.495087,-0.14842,22.050589
15360,2775,5.95438,8.774749,2.075773,0.524665,-0.423942,-0.13483,22.05353
15370,4095,5.499481,8.439561,1.477222,0.523066,-0.362123,-0.075942,22.047647
15380,4095,5.094861,8.259995,0.912191,0.432202,-0.346135,0.012524,22.047647
15390,1811,4.879383,8.207323,0.378284,0.292576,-0.362655,0.106052,22.02706
15400,1719,4.845864,8.14268,0.004788,0.146554,-0.377311,0.180928,22.035883
15410,2082,4.960786,7.979874,-0.002394,0.028778,-0.387969,0.231023,22.035883
15420,1911,5.161899,7.606379,0.368707,-0.053026,-0.415681,0.275789,22.041765
15430,2005,5.310339,7.149086,0.785298,-0.104453,-0.47457,0.328015,22.035883
15440,2037,5.406107,6.708553,1.043872,-0.136695,-0.55744,0.375979,22.032942
15450,1917,5.401319,6.457162,1.000776,-0.16121,-0.643773,0.39543,22.038824
15460,1858,5.295974,6.399701,0.711078,-0.202511,-0.710123,0.376511,22.05353
15470,1898,5.08289,6.584054,0.299275,-0.270459,-0.758619,0.336542,22.041765
15480,2031,4.848258,6.907272,-0.009577,-0.372248,-0.80445,0.296306,22.056471
15490,1968,4.697424,7.381324,-0.177171,-0.494554,-0.870533,0.277121,22.047647
15500,2022,4.649539,7.929596,-0.117316,-0.643507,-0.968858,0.267262,22.030001
15510,2126,4.690241,8.458714,0.105345,-0.816175,-1.089565,0.241948,22.047647
15520,2151,4.72376,8.916007,0.545878,-0.97925,-1.217467,0.188655,22.030001
15530,2201,4.680665,9.234436,1.103727,-1.104221,-1.336309,0.100723,22.044706
15540,2256,4.556166,9.469068,1.632846,-1.15325,-1.427706,0.001066,22.05353
15550,2202,4.309563,9.667787,2.011129,-1.102622,-1.468208,-0.080472,22.059412
15560,2221,4.027047,9.818622,2.207454,-0.9574,-1.43943,-0.133764,22.05353
15570,2416,3.742137,9.840169,2.267309,-0.753023,-1.329381,-0.154548,22.056471
15580,2432,3.421314,9.655815,2.327164,-0.523865,-1.168438,-0.153216,22.062353
15590,2293,3.102885,9.406818,2.286463,-0.302168,-0.984579,-0.133764,22.059412
15600,2383,2.815581,9.14585,2.063802,-0.12204,-0.779936,-0.094328,22.044706
15610,2431,2.616863,9.006987,1.819593,0.03011,-0.560371,-0.024248,22.05353
15620,2481,2.571373,8.925584,1.661576,0.166006,-0.340006,0.075942,22.044706
15630,2559,2.712631,8.853758,1.572991,0.284848,-0.139626,0.17853,22.065294
15640,2130,2.999935,8.729259,1.556231,0.384505,0.015988,0.251807,22.041765
15650,2070,3.320758,8.561666,1.484405,0.476168,0.126836,0.272058,22.047647
15660,1856,3.622427,8.477868,1.295263,0.569164,0.211305,0.242214,22.047647
15670,1726,3.797204,8.418014,1.034295,0.662959,0.274723,0.18306,22.044706
15680,1670,3.861847,8.317456,0.691924,0.744496,0.318689,0.117776,22.044706
15690,1680,3.857059,8.159439,0.445322,0.797789,0.334943,0.062352,22.041765
15700,1648,3.833117,7.991845,0.19393,0.818839,0.330413,0.023982,22.056471
15710,1587,3.847482,7.826645,-0.009577,0.819639,0.319489,-0.001066,22.056471
15720,1486,3.921702,7.764396,-0.191536,0.807381,0.312827,-0.020518,22.050589
15730,1475,4.048595,7.754819,-0.318429,0.779403,0.310162,-0.041568,22.050589
15740,1526,4.213795,7.795521,-0.328006,0.740499,0.305632,-0.069813,22.050589
15750,1535,4.453215,7.915231,-0.146046,0.679213,0.27419,-0.099657,22.038824
15760,1493,4.778827,8.348581,0.021548,0.563568,0.198248,-0.117776,22.062353
15770,1491,5.063736,9.176975,-0.227449,0.418346,0.132698,-0.12204,22.059412
15780,1581,5.195418,10.043676,-0.670376,0.328815,0.147354,-0.118842,22.059412
15790,1649,5.207389,10.560823,-0.936133,0.282983,0.240882,-0.1303,22.065294
15800,1631,5.140351,10.45069,-0.792481,0.257669,0.372515,-0.160943,22.050589
15810,1456,5.080496,9.986216,-0.311246,0.227026,0.506279,-0.208374,22.044706
15820,1499,5.032612,9.583989,0.160412,0.175332,0.627253,-0.232089,22.038824
15830,1535,5.030218,9.435549,0.531513,0.112714,0.722113,-0.213703,22.05353
15840,1519,5.109226,9.593566,0.761356,0.043966,0.793792,-0.151884,22.059412
15850,1520,5.33907,9.866506,0.916979,0.007994,0.869734,-0.058888,22.050589
15860,1554,5.691018,10.005369,1.122881,0.040236,0.954735,0.029844,22.044706
15870,1494,6.047753,9.916783,1.434127,0.154282,1.021351,0.102855,22.044706
15880,1520,6.399701,9.569624,1.790863,0.343737,1.045599,0.161476,22.056471
15890,1484,6.658275,9.0429,2.118869,0.607002,1.023216,0.196383,22.050589
15900,1517,6.789956,8.53054,2.209848,0.936349,0.961663,0.224361,22.056471
15910,1488,6.916849,8.073248,1.984793,1.259035,0.9129,0.247277,22.056471
15920,1522,6.940791,7.644686,1.601721,1.512974,0.917963,0.262466,22.038824
15930,1648,6.888118,7.223307,1.197101,1.680579,0.964061,0.263265,22.047647
15940,1761,6.787562,6.840234,0.792481,1.750659,1.012025,0.251008,22.02706
15950,1825,6.684611,6.646304,0.466869,1.715485,1.027746,0.241415,22.032942
15960,1899,6.677429,6.658275,0.11971,1.585718,0.99577,0.250475,22.044706
15970,1936,6.799533,6.789956,-0.177171,1.39653,0.916631,0.271259,22.050589
15980,1847,7.062895,6.940791,-0.430956,1.179629,0.807914,0.285381,22.05353
15990,1664,7.419631,7.16824,-0.656011,0.945942,0.694934,0.269394,22.041765
16000,1658,7.704541,7.386112,-0.806846,0.714386,0.591014,0.19585,22.041765
16010,1659,7.778761,7.546524,-0.905008,0.514273,0.508677,0.058355,22.044706
16020,1651,7.522582,7.716512,-0.936133,0.349599,0.447124,-0.097792,22.050589
16030,1698,6.998251,7.81228,-0.912191,0.215835,0.393832,-0.21317,22.05353
16040,1723,6.370971,7.814674,-0.78051,0.111115,0.347201,-0.271792,22.056471
16050,1712,5.810728,7.73806,-0.665588,0.038104,0.320554,-0.282717,22.059412
16060,1795,5.341464,7.682993,-0.533907,-0.003198,0.328282,-0.270992,22.062353
16070,1699,4.944026,7.673417,-0.423774,-0.011191,0.375979,-0.251274,22.062353
16080,1616,4.654328,7.697359,-0.308852,0.012524,0.470306,-0.227825,22.056471
16090,1296,4.446033,7.726089,-0.169988,0.068481,0.598208,-0.192386,22.077059
16100,2679,4.316746,7.704541,0.122104,0.155348,0.71785,-0.142291,22.074118
16110,4095,4.316746,7.61835,0.438139,0.272058,0.803384,-0.079672,22.068235
16120,4095,4.520253,7.524976,0.727837,0.415681,0.85641,-0.010392,22.059412
16130,1531,4.766856,7.443573,0.931344,0.593145,0.902242,0.065816,22.065294
16140,1435,5.015852,7.431602,0.948104,0.816175,0.938747,0.144956,22.065294
16150,1822,5.238513,7.426814,0.708684,1.060254,0.976851,0.201712,22.062353
16160,1744,5.377377,7.393295,0.344765,1.290211,1.022683,0.229158,22.065294
16170,1761,5.44202,7.199365,0.071826,1.471939,1.06958,0.232622,22.071177
16180,1786,5.499481,6.974309,-0.153229,1.575859,1.104221,0.216368,22.059412
16190,1817,5.533,6.703765,-0.323217,1.592113,1.103954,0.186524,22.05353
16200,1863,5.552154,6.430826,-0.483629,1.550279,1.068248,0.137761,22.062353
16210,1894,5.559336,6.191406,-0.651223,1.488193,1.019485,0.072744,22.062353
16220,1951,5.542577,5.98311,-0.806846,1.425041,0.97472,-0.000533,22.062353
16230,1975,5.540183,5.882554,-0.993594,1.354695,0.942211,-0.068747,22.05353
16240,1935,5.525817,5.925649,-1.182736,1.254239,0.929421,-0.119375,22.044706
16250,2000,5.583278,6.069301,-1.340753,1.115678,0.929688,-0.144689,22.050589
16260,2075,5.722142,6.23929,-1.472434,0.96566,0.925691,-0.150818,22.062353
16270,2038,5.916072,6.402095,-1.465251,0.840956,0.906772,-0.158279,22.068235
16280,2127,6.177041,6.531382,-1.386243,0.758086,0.864937,-0.179862,22.050589
16290,2184,6.426037,6.64391,-1.25935,0.690937,0.808181,-0.211038,22.065294
16300,2202,6.639122,6.794744,-1.165976,0.614729,0.739966,-0.232622,22.05353
16310,2240,6.789956,7.036559,-1.158794,0.549979,0.656031,-0.246211,22.074118
16320,2329,6.83784,7.311892,-1.268927,0.524931,0.562502,-0.265663,22.065294
16330,2354,6.694188,7.584831,-1.527501,0.54385,0.458049,-0.293375,22.071177
16340,2381,6.40449,7.718906,-1.762132,0.586217,0.350931,-0.315492,22.068235
16350,2439,6.009446,7.659051,-1.972822,0.636579,0.26513,-0.323219,22.071177
16360,2449,5.571307,7.457938,-2.094927,0.671485,0.220364,-0.325884,22.062353
16370,2369,5.080496,7.256825,-2.183512,0.678413,0.215835,-0.327749,22.059412
16380,2316,4.718972,7.275979,-2.255338,0.627786,0.241149,-0.32242,22.062353
16390,2221,4.690241,7.922413,-2.425326,0.387436,0.277654,-0.306698,22.068235
16400,2031,5.042189,9.284714,-2.980781,-0.039436,0.348799,-0.272858,22.062353
16410,1884,5.614403,10.603919,-3.450045,-0.275789,0.506812,-0.23502,22.068235
16420,1870,6.215348,11.224017,-3.380613,-0.206775,0.704793,-0.232089,22.071177
16430,1808,6.634333,10.958261,-2.612074,-0.053026,0.899844,-0.253939,22.062353
16440,1788,6.713342,10.228029,-1.441309,0.0429,1.025881,-0.285648,22.068235
16450,1949,6.749255,9.821015,-0.464475,-0.03091,1.01389,-0.329881,22.056471
16460,1835,6.825869,9.900024,-0.076614,-0.222496,0.893715,-0.399161,22.071177
16470,1654,6.847417,10.369287,-0.169988,-0.313093,0.745029,-0.48736,22.05353
16480,1763,6.567295,10.927136,-0.593762,-0.221164,0.638977,-0.562502,22.08
16490,1915,5.825093,11.11149,-0.943315,-0.098058,0.599541,-0.600873,22.062353
16500,1843,4.857835,10.716447,-0.969652,-0.039436,0.612064,-0.607801,22.071177
16510,1907,4.005499,9.947908,-0.754174,-0.043167,0.649103,-0.601406,22.082941
16520,1857,3.315969,9.11712,-0.440533,-0.074077,0.687473,-0.597409,22.077059
16530,2035,2.791639,8.456321,-0.112527,-0.127103,0.723979,-0.591813,22.068235
16540,1883,2.454057,8.034941,0.186748,-0.225694,0.758619,-0.566233,22.071177
16550,1920,2.240973,7.862558,0.486023,-0.38264,0.802851,-0.506545,22.077059
16560,1819,2.272097,7.905654,0.893037,-0.587816,0.851614,-0.410619,22.050589
16570,1779,2.382231,8.212111,1.268927,-0.810046,0.903308,-0.291776,22.074118
16580,1825,2.633622,8.635885,1.611298,-0.959798,0.968591,-0.162809,22.065294
16590,1886,3.011906,9.148245,2.013524,-0.964061,1.051994,-0.035706,22.062353
16600,1870,3.442862,9.667787,2.41575,-0.834028,1.127669,0.076208,22.065294
16610,1866,3.986346,10.151415,2.784456,-0.618726,1.1751,0.174266,22.050589
16620,1875,4.537012,10.474632,3.114856,-0.346135,1.18789,0.249675,22.074118
16630,1875,5.070919,10.546458,3.347094,-0.010392,1.172701,0.29151,22.077059
16640,1915,5.461174,10.390836,3.44765,0.370383,1.123939,0.29977,22.065294
16650,1882,5.571307,9.974244,3.229778,0.73144,1.042934,0.284582,22.062353
16660,1866,5.446809,9.433155,2.724602,1.015755,0.95287,0.261133,22.062353
16670,1933,5.154716,8.884883,2.128445,1.196949,0.866536,0.243014,22.08
16680,1982,4.809951,8.362947,1.496376,1.257436,0.793259,0.242747,22.08
16690,2085,4.469975,7.93199,0.936133,1.211605,0.731173,0.253406,22.071177
16700,2173,4.141969,7.678205,0.433351,1.082371,0.660028,0.260334,22.074118
16710,2065,3.881001,7.601591,-0.026336,0.885188,0.581954,0.257403,22.074118
16720,2023,3.670311,7.61835,-0.395043,0.653099,0.511608,0.245412,22.068235
16730,1746,3.586514,7.64708,-0.593762,0.436199,0.463112,0.230757,22.062353
16740,1691,3.588908,7.661446,-0.543484,0.193985,0.417813,0.20944,22.071177
16750,1657,3.701436,7.754819,-0.21069,-0.043167,0.359458,0.190254,22.062353
16760,1674,3.94325,7.917625,0.299275,-0.262199,0.272325,0.162542,22.059412
16770,1677,4.283227,8.14268,0.847547,-0.422876,0.170003,0.11751,22.065294
16780,1658,4.596867,8.418014,1.386243,-0.483629,0.072478,0.055424,22.071177
16790,1702,4.726154,8.662222,1.836353,-0.442328,-0.024515,-0.015721,22.094706
16800,1677,4.685453,8.865729,2.13084,-0.322953,-0.12657,-0.089265,22.071177
16810,1750,4.402937,8.990228,2.161964,-0.16494,-0.228891,-0.159078,22.068235
16820,1625,3.957615,8.980651,1.953669,-0.027979,-0.304567,-0.214236,22.082941
16830,1380,3.488352,8.916007,1.642422,0.046364,-0.320554,-0.245145,22.065294
16840,1244,3.083732,8.839393,1.414973,0.06555,-0.262732,-0.239017,22.068235
16850,3082,2.832341,8.827422,1.264138,0.044766,-0.161476,-0.190787,22.077059
16860,4095,2.746149,8.868123,1.295263,-0.000799,-0.043167,-0.111914,22.071177
16870,4095,2.870648,8.865729,1.410185,-0.022116,0.068214,-0.021051,22.062353
16880,1268,3.081338,8.8777,1.572991,0.018119,0.148953,0.060753,22.068235
16890,1840,3.383007,8.920795,1.68073,0.110848,0.175599,0.1311,22.068235
16900,1481,3.708618,8.932767,1.733402,0.23049,0.159877,0.179329,22.085882
16910,1430,4.01747,8.884883,1.776498,0.368784,0.120441,0.206508,22.082941
16920,1649,4.283227,8.781932,1.798046,0.507611,0.053559,0.220897,22.068235
16930,1651,4.434062,8.710106,1.671153,0.627253,-0.053026,0.224095,22.08
16940,1635,4.491522,8.635885,1.407791,0.714919,-0.192652,0.210505,22.074118
16950,1694,4.505888,8.595184,1.043872,0.766613,-0.340806,0.177997,22.077059
16960,1744,4.446033,8.561666,0.656011,0.772741,-0.479899,0.1303,22.068235
16970,1736,4.345476,8.590396,0.217872,0.728242,-0.58755,0.077807,22.062353
16980,1793,4.259285,8.647857,-0.160412,0.648836,-0.654165,0.026646,22.068235
16990,1879,4.1707,8.736442,-0.45011,0.551577,-0.682144,-0.013856,22.062353
17000,1965,4.072537,8.872911,-0.596156,0.448723,-0.694135,-0.040502,22.059412
17010,1898,4.03423,9.062054,-0.656011,0.342138,-0.715985,-0.049562,22.08
17020,1808,4.070143,9.26556,-0.584185,0.251274,-0.745029,-0.043433,22.071177
17030,1853,4.13718,9.514558,-0.517148,0.200646,-0.762349,-0.03091,22.05353
17040,2029,4.235343,9.813833,-0.452504,0.195051,-0.751957,-0.022649,22.071177
17050,2211,4.362236,10.201694,-0.488417,0.206508,-0.721047,-0.020784,22.065294
17060,2262,4.443638,10.702082,-0.70629,0.223562,-0.662959,-0.020784,22.056471
17070,2036,4.441244,10.984597,-0.979228,0.280851,-0.561969,-0.019452,22.056471
17080,2236,4.367024,10.769119,-1.144428,0.404224,-0.414083,-0.021583,22.050589
17090,2357,4.149151,10.079589,-1.154005,0.514539,-0.261666,-0.019452,22.077059
17100,2288,3.82354,9.315839,-1.115698,0.540119,-0.13936,0.01279,22.085882
17110,2289,3.512294,8.803479,-1.16837,0.477501,-0.060487,0.095926,22.08
17120,2257,3.335123,8.523358,-1.271321,0.368784,-0.015988,0.235553,22.068235
17130,2229,3.435679,8.3821,-1.376666,0.255538,0.017054,0.404224,22.071177
17140,2158,3.775656,8.372523,-1.328782,0.161743,0.049029,0.545182,22.088823
17150,1969,4.292804,8.3821,-1.125275,0.106052,0.074077,0.621923,22.094706
17160,1839,4.819528,8.350976,-0.814029,0.091663,0.083136,0.624055,22.065294
17170,1800,5.267244,8.226477,-0.466869,0.12124,0.064217,0.562236,22.059412
17180,1797,5.580884,8.051701,-0.275333,0.187323,0.024248,0.456184,22.071177
17190,1590,5.755661,7.874529,-0.174777,0.288579,-0.007461,0.340539,22.077059
17200,1535,5.844246,7.747637,-0.143652,0.406355,-0.018119,0.244346,22.074118
17210,1626,5.896919,7.682993,-0.229843,0.507345,-0.009859,0.180129,22.074118
17220,1661,5.951985,7.644686,-0.361524,0.580355,0.006928,0.146821,22.08
17230,1680,6.01184,7.666234,-0.577003,0.623789,0.02638,0.129501,22.068235
17240,1648,6.088455,7.762002,-0.837971,0.645639,0.044233,0.123106,22.08
17250,1683,6.186617,7.953538,-1.142034,0.657363,0.065816,0.130567,22.091764
17260,1615,6.26802,8.078036,-1.47004,0.668554,0.09566,0.151084,22.062353
17270,1611,6.31351,8.123527,-1.750161,0.669354,0.128435,0.162276,22.085882
17280,1839,6.34224,8.037335,-1.927332,0.646438,0.158012,0.152683,22.077059
17290,1594,6.445191,7.90326,-2.03986,0.609133,0.187057,0.144956,22.091764
17300,1520,6.586449,7.785944,-2.06859,0.567032,0.229158,0.136695,22.074118
17310,1731,6.67264,7.666234,-2.059013,0.527862,0.26966,0.12204,22.082941
17320,1712,6.701371,7.592013,-2.03986,0.483363,0.281118,0.103654,22.074118
17330,1659,6.636727,7.551312,-2.087744,0.427406,0.259002,0.089531,22.074118
17340,1722,6.59842,7.589619,-2.185906,0.352796,0.212371,0.078074,22.077059
17350,1744,6.639122,7.711724,-2.30801,0.279253,0.167338,0.071145,22.091764
17360,1711,6.730101,7.805098,-2.382231,0.233688,0.147087,0.076741,22.088823
17370,1753,6.811504,7.773973,-2.334347,0.232089,0.145755,0.088466,22.077059
17380,1745,6.675035,7.551312,-2.149993,0.242747,0.132698,0.096193,22.077059
17390,1829,6.282385,7.232883,-1.915361,0.228092,0.079939,0.090864,22.077059
17400,1898,5.767632,6.938396,-1.714248,0.171335,-0.027979,0.078606,22.077059
17410,1941,5.315128,6.780379,-1.572991,0.080472,-0.168937,0.071945,22.068235
17420,2007,5.027823,6.737284,-1.486799,-0.010925,-0.294175,0.078873,22.05353
17430,1985,5.046977,6.816292,-1.398214,-0.056757,-0.353329,0.10019,22.068235
17440,1968,5.284003,6.981492,-1.326388,-0.014389,-0.312294,0.131899,22.082941
17450,1890,5.616797,7.141904,-1.300052,0.116711,-0.176132,0.163874,22.082941
17460,1915,5.90889,7.275979,-1.25935,0.281384,-0.001066,0.189988,22.074118
17470,1671,6.054936,7.343017,-1.235408,0.428472,0.131632,0.2177,22.065294
17480,1647,6.112397,7.357382,-1.237802,0.540919,0.174533,0.259002,22.077059
17490,1711,6.124368,7.323863,-1.386243,0.613663,0.1311,0.314159,22.062353
17500,1727,6.110003,7.268796,-1.668759,0.652567,0.051694,0.369583,22.082941
17510,1748,6.093243,7.175423,-2.003947,0.654432,-0.023982,0.413017,22.071177
17520,1738,6.105214,7.161057,-2.466028,0.615528,-0.06102,0.437531,22.059412
17530,1789,6.160281,7.065289,-2.760514,0.52573,-0.050894,0.450588,22.077059
17540,1791,6.212954,6.936002,-2.901772,0.418613,-0.019452,0.451387,22.088823
17550,1742,6.287174,6.794744,-2.870648,0.292842,0.010925,0.444193,22.091764
17560,1366,6.351817,6.677429,-2.815581,0.143623,0.011191,0.430603,22.085882
17570,2512,6.430826,6.646304,-2.762909,-0.009326,-0.025314,0.408753,22.074118
17580,4095,6.514623,6.756437,-2.841918,-0.14842,-0.0866,0.378643,22.077059
17590,4095,6.588843,6.964733,-3.016694,-0.277121,-0.146288,0.336276,22.091764
17600,1712,6.59842,7.19697,-3.205836,-0.398628,-0.18679,0.271259,22.100588
17610,1401,6.505046,7.422025,-3.217807,-0.514805,-0.203577,0.195583,22.103529
17620,1793,6.303933,7.565677,-3.160346,-0.621923,-0.197182,0.115911,22.085882
17630,1807,6.040571,7.575254,-2.999935,-0.714652,-0.168138,0.038904,22.074118
17640,1808,5.758055,7.477092,-2.75812,-0.789528,-0.116711,-0.018119,22.094706
17650,1758,5.511452,7.376535,-2.487576,-0.852946,-0.046631,-0.057023,22.091764
17660,1879,5.32231,7.271191,-2.30801,-0.895047,0.022649,-0.088199,22.088823
17670,1954,5.197812,7.266402,-2.176329,-0.897179,0.081271,-0.106319,22.085882
17680,1883,5.104438,7.311892,-2.116474,-0.859342,0.135629,-0.108717,22.065294
17690,1851,5.099649,7.319075,-2.080561,-0.788995,0.210772,-0.090331,22.08
17700,1904,5.204995,7.328651,-2.0231,-0.696799,0.32242,-0.057289,22.088823
17710,1886,5.410896,7.400477,-1.96564,-0.610998,0.433268,-0.019452,22.097647
17720,1998,5.707777,7.491457,-1.80044,-0.542784,0.507611,0.02185,22.08
17730,1987,5.987898,7.505822,-1.637634,-0.479366,0.527329,0.061286,22.082941
17740,2058,5.987898,7.43639,-1.522712,-0.42261,0.471106,0.071678,22.085882
17750,2106,5.942409,7.402872,-1.568202,-0.382907,0.36532,0.076208,22.085882
17760,2021,6.076484,7.295133,-1.714248,-0.376511,0.306432,0.100989,22.091764
17770,2131,6.325481,7.098808,-1.802834,-0.39996,0.33068,0.092462,22.088823
17780,2103,6.53617,7.050924,-1.891419,-0.423675,0.402891,0.048496,22.085882
17790,2284,6.660669,7.192182,-1.865083,-0.443394,0.45725,0.006662,22.08
17800,2421,6.768408,7.386112,-1.798046,-0.475636,0.450055,-0.013323,22.085882
