time_ms, ECG, accX, accY, accZ, gyroX, gyroY, gyroZ, temp_C
459,1456,-1.4126,8.3438,0.8715,1.2105,-1.2945,-0.3635,25.31
469,1264,-1.4509,7.9248,-0.0862,1.2343,-0.8164,-0.4231,25.31
479,1211,-1.1851,7.3622,-0.8332,1.1892,-0.4666,-0.4644,25.33
489,1222,-0.7853,6.8714,-1.1947,1.0376,-0.2297,-0.4836,25.32
499,1240,-0.3998,6.6846,-1.47,0.7421,-0.0815,-0.392,25.33
509,1276,0.316,6.3159,-1.6233,0.3389,0.0088,-0.2292,25.35
519,1309,1.1612,6.0454,-1.4988,-0.1074,0.0469,-0.1077,25.34
529,1382,1.9154,6.0358,-1.1564,-0.5473,0.0346,-0.0408,25.35
539,1360,2.4181,6.28,-0.5674,-0.9561,-0.0426,-0.0139,25.35
549,1309,2.5402,6.8354,0.2466,-1.3033,-0.2148,0.0234,25.34
559,1110,2.4708,7.6064,1.087,-1.5553,-0.4871,0.0935,25.34
569,1377,2.217,8.5353,1.9728,-1.6808,-0.8327,0.1785,25.35
579,4095,1.9058,9.4403,2.739,-1.6318,-1.2017,0.2406,25.36
589,4095,1.6328,10.1514,3.2489,-1.392,-1.5058,0.238,25.36
599,2406,1.3934,10.5297,3.4333,-0.9726,-1.6686,0.1332,25.37
609,662,1.1013,10.6255,3.3112,-0.4541,-1.6321,-0.0562,25.36
619,1399,0.747,10.4507,2.9209,0.0701,-1.4037,-0.2614,25.37
629,1405,0.5028,10.0197,2.3415,0.5223,-1.0749,-0.4162,25.36
639,1379,0.4549,9.4595,1.7454,0.8553,-0.7743,-0.4935,25.38
649,1403,0.5962,8.8921,1.1947,1.0651,-0.5798,-0.4844,25.38
659,1408,0.9026,8.4348,0.6033,1.133,-0.5252,-0.4112,25.39
669,1454,1.2474,8.1116,0.0383,1.0802,-0.5764,-0.3043,25.4
679,1488,1.5634,7.8673,-0.5267,0.9209,-0.6917,-0.1977,25.4
689,1494,1.7837,7.6279,-1.0056,0.68,-0.8122,-0.1569,25.41
699,1565,1.4748,7.92,-1.3551,0.3973,-0.9393,-0.0749,25.41
709,1582,1.4317,7.9823,-1.4293,0.1367,-1.064,0.0176,25.41
719,1616,1.2378,8.0661,-1.3886,-0.0608,-1.1759,0.0453,25.39
729,1597,0.9266,8.2935,-1.3096,-0.2137,-1.2343,0.036,25.4
739,1680,0.5674,8.5593,-1.233,-0.3459,-1.2103,0.0152,25.4
749,1701,0.2418,8.8562,-0.9936,-0.4591,-1.0786,0.0051,25.41
759,1727,0.0622,9.165,-0.7063,-0.5361,-0.8412,0.0059,25.41
769,1777,0.1197,9.4715,-0.4597,-0.5987,-0.5545,0.0056,25.42
779,1819,0.4142,9.8402,0.012,-0.6472,-0.295,0.0131,25.43
789,1840,0.8667,10.1586,0.2203,-0.6909,-0.101,0.0408,25.42
799,1881,1.4293,10.4052,0.4429,-0.7514,0.0221,0.0866,25.42
809,1913,2.0662,10.647,0.8116,-0.7602,0.0277,0.141,25.42
819,1910,2.6983,10.884,1.1229,-0.6651,-0.0834,0.1703,25.43
829,1943,3.0909,11.1211,1.2689,-0.4855,-0.2761,0.1498,25.43
839,1923,3.0574,11.2743,1.142,-0.2942,-0.4628,0.1095,25.46
849,1864,2.6983,11.4251,1.2306,-0.19,-0.566,0.0901,25.44
853,1805,2.5762,11.4467,1.2641,-0.1929,-0.5801,0.093,25.43
863,1664,2.138,11.3629,1.4581,-0.3016,-0.5188,0.1191,25.43
873,1611,1.8004,11.2647,1.6712,-0.5364,-0.3776,0.1764,25.43
883,1523,1.6544,11.2647,1.9249,-0.878,-0.2116,0.2718,25.43
893,1434,1.6185,11.4826,2.296,-1.271,-0.0853,0.3549,25.44
903,1421,1.5993,11.8345,2.9329,-1.627,-0.0203,0.3912,25.43
913,1399,1.743,12.2176,3.9217,-1.8143,0.0096,0.3656,25.45
923,1392,2.0016,12.4115,5.1667,-1.7269,0.0362,0.2446,25.45
933,1375,2.3296,12.2655,6.2106,-1.3688,0.0773,0.0163,25.44
943,1383,2.3846,11.7603,6.778,-0.8407,0.0994,-0.2561,25.44
953,1403,2.4972,10.8098,6.8714,-0.267,0.0914,-0.4527,25.44
963,1426,2.9832,9.5481,6.5888,0.2654,0.0333,-0.5974,25.46
973,1437,3.5865,8.0948,5.8371,0.6568,-0.097,-0.7061,25.46
983,1479,4.0534,6.6966,4.9009,0.8801,-0.2774,-0.7631,25.45
993,1503,4.3,5.5474,3.9983,0.9513,-0.5041,-0.7405,25.45
1003,1535,4.4963,4.7597,3.1484,0.8116,-0.8116,-0.6899,25.46
1013,1566,4.4388,4.4532,2.569,0.5201,-1.1506,-0.571,25.47
1023,1598,4.288,4.7597,2.1668,0.0698,-1.5266,-0.3821,25.47
1033,1625,3.6703,5.8227,2.1763,-0.6153,-2.0001,-0.1945,25.47
1043,1677,2.5618,7.7428,2.545,-1.4043,-2.5373,0.0749,25.47
1053,1729,1.6664,10.1347,3.5123,-1.9753,-3.0273,0.4538,25.48
1063,1753,1.5993,11.7675,4.8578,-2.0728,-3.334,0.696,25.48
1073,1780,1.3671,12.4953,5.6407,-1.6454,-3.2706,0.5361,25.49
1083,1794,0.419,12.7515,5.7509,-0.8415,-2.7819,0.0298,25.49
1093,1822,-0.6297,12.5217,4.8842,0.0845,-2.0078,-0.6009,25.47
1103,1823,-1.221,11.7531,3.6703,0.8913,-1.1397,-1.1767,25.47
1113,1826,-1.3216,10.7045,2.6863,1.4536,-0.4109,-1.6329,25.47
1123,1872,-1.2665,9.6678,1.9201,1.7203,0.0349,-1.8751,25.48
1133,1963,-1.0965,8.7364,1.6688,1.7387,0.2358,-1.7882,25.49
1143,2001,-0.893,8.0972,1.3838,1.5847,0.2928,-1.4107,25.49
1153,2076,-0.2227,7.5417,1.0989,1.3062,0.3483,-0.7613,25.47
1163,2094,0.6201,6.8642,0.8811,0.9052,0.3272,-0.0978,25.49
1173,2067,1.8651,6.0286,0.7949,0.5223,0.219,0.3387,25.48
1183,1937,2.9832,5.5067,0.7494,0.2353,0.0893,0.4863,25.49
1193,1782,4.2713,5.2912,0.3328,0.0717,0,0.3997,25.49
1203,1771,5.3343,5.3056,-0.1724,-0.0226,-0.0136,0.1146,25.48
1213,1751,5.4827,5.6671,-0.0335,-0.0586,-0.0874,-0.2222,25.5
1223,1762,4.5993,6.2608,0.2442,-0.0544,-0.3336,-0.4482,25.5
1233,1760,3.1651,7.015,0.3831,-0.0951,-0.7115,-0.465,25.51
1243,1763,1.8747,7.6662,0.5914,-0.2212,-1.1205,-0.304,25.51
1247,1761,1.4078,7.908,0.6656,-0.2864,-1.2662,-0.2153,25.5
1257,1759,0.5052,8.3438,0.9194,-0.4434,-1.5159,0.0304,25.5
1267,1778,0.0862,8.5377,1.1803,-0.5252,-1.5476,0.2281,25.49
1277,1677,0.0766,8.6143,1.2833,-0.4836,-1.3635,0.3142,25.51
1287,1418,0.0575,8.6,1.063,-0.3635,-0.9643,0.2779,25.51
1297,3088,0.0359,8.7149,0.8595,-0.198,-0.4418,0.1761,25.51
1307,4095,0.1724,8.6407,0.7159,-0.0197,0.0703,0.0701,25.5
1317,4095,0.5626,8.5114,0.4932,0.1202,0.4839,-0.0413,25.51
1327,1296,1.0199,8.3151,0.5052,0.186,0.7973,-0.1529,25.51
1337,1487,1.4246,8.0469,0.6943,0.2531,0.9582,-0.2638,25.52
1347,1840,1.719,7.8961,0.7877,0.3429,0.9755,-0.3539,25.52
1357,1781,1.9393,7.908,0.7685,0.4314,0.8729,-0.3989,25.52
1367,1729,2.0853,8.1163,0.5914,0.5039,0.6955,-0.3888,25.52
1377,1735,2.1093,8.5018,0.3256,0.571,0.4914,-0.34,25.52
1387,1799,1.9968,8.8897,0.1604,0.6422,0.288,-0.2686,25.53
1397,1830,1.7861,9.1746,0.2179,0.7147,0.1085,-0.1887,25.53
1407,1904,1.6185,9.2081,0.3567,0.7687,-0.0277,-0.1282,25.53
1417,1907,1.4174,9.019,0.3879,0.8087,-0.1077,-0.1132,25.53
1427,1929,1.2785,8.8059,0.2203,0.8178,-0.1455,-0.1383,25.52
1437,1985,1.1708,8.8873,-0.0886,0.7466,-0.1314,-0.1785,25.52
1447,2015,0.9888,9.2536,-0.6536,0.5553,-0.0405,-0.1884,25.52
1457,2097,0.8882,9.8497,-1.2857,0.2041,0.1364,-0.1615,25.53
1467,2133,0.8571,10.5943,-1.6424,-0.2646,0.3195,-0.1343,25.52
1477,2205,0.9816,11.4012,-1.415,-0.7466,0.5236,-0.1223,25.53
1487,2252,0.9505,11.9279,-0.2849,-0.9236,0.5868,-0.1359,25.53
1497,2251,0.984,12.5624,0.68,-0.7397,0.4882,-0.1426,25.54
1507,2288,0.9888,13.137,1.2809,-0.393,0.3517,-0.1066,25.54
1517,2361,0.826,13.4602,1.5754,-0.0858,0.2457,-0.041,25.54
1527,2416,0.5195,13.3836,1.8124,0.0661,0.1951,0.0352,25.53
1537,2423,0.3783,12.9431,1.8268,0.0408,0.2587,0.0917,25.54
1547,2530,0.5578,12.4139,1.7645,-0.1482,0.4815,0.1591,25.55
1557,2559,1.1684,12.0548,2.1715,-0.4221,0.8263,0.2641,25.54
1567,2544,2.059,11.9686,3.0981,-0.761,1.1061,0.3789,25.57
1577,2432,2.7797,12.0093,4.2569,-1.1042,1.1927,0.5063,25.56
1587,2336,3.4812,11.7364,5.4061,-1.3544,1.0429,0.6478,25.56
1597,2253,4.1276,10.9966,6.0837,-1.4842,0.6981,0.732,25.55
1607,2154,5.2505,9.833,6.1627,-1.4893,0.3296,0.6757,25.56
1617,2155,5.0829,8.5712,7.1204,-1.3033,-0.0514,0.5332,25.56
1627,2128,3.7733,7.4603,7.8554,-0.9385,-0.6041,0.3397,25.55
1637,2072,1.8435,6.8522,8.1355,-0.3842,-1.2966,0.1716,25.57
1641,2065,0.9433,6.8067,7.9703,-0.1306,-1.5471,0.1378,25.56
1651,1987,-1.142,7.0006,6.9959,0.4495,-1.9476,0.1724,25.57
1661,2030,-3.0502,7.0198,5.7078,0.9193,-1.8594,0.2635,25.57
1671,1971,-4.1156,7.0797,3.8068,1.3821,-1.3438,0.2814,25.57
1681,1951,-4.4365,7.5848,0.6201,1.5988,-0.421,0.1897,25.56
1691,1968,-4.2258,8.3151,-2.4756,1.3558,0.8482,0.0839,25.57
1701,1947,-3.7158,9.0309,-4.2665,0.6488,2.2394,0.053,25.57
1711,1975,-2.4157,9.6558,-4.4652,-0.3493,3.4805,0.1577,25.57
1721,2005,-0.6057,10.5991,-2.7174,-1.4099,4.3164,0.4804,25.58
1731,2000,2.2146,11.0085,0.8332,-2.1759,4.3929,1.0062,25.58
1741,1959,5.8395,10.4986,4.3503,-2.4829,3.7723,1.3989,25.57
1751,1953,8.2337,9.979,7.5561,-2.3851,2.7126,1.5394,25.56
1761,1941,9.1051,8.77,9.0932,-1.9931,1.4008,1.5375,25.58
1771,1893,8.9376,7.106,9.3494,-1.5436,0.0994,1.2033,25.57
1781,1823,7.4436,6.5146,8.8681,-1.0509,-1.0818,0.7125,25.58
1791,1817,5.1715,6.6655,7.5968,-0.554,-2.0019,0.3613,25.59
1801,1749,2.9305,7.039,5.9472,-0.089,-2.6161,0.1719,25.59
1811,1711,1.2905,7.4891,4.0749,0.3693,-2.8983,0.0362,25.57
1821,1726,0.5028,7.7524,1.9992,0.8226,-2.8309,-0.1553,25.58
1831,1694,0.3017,7.7428,-0.0311,1.2231,-2.4698,-0.4764,25.59
1841,1691,-0.3807,7.4939,-1.3982,1.4751,-2.0366,-0.8993,25.58
1851,1712,-1.6209,7.1491,-1.9704,1.5583,-1.6686,-1.287,25.58
1861,1808,-2.6576,7.1012,-2.2146,1.4973,-1.3877,-1.4655,25.57
1871,1868,-3.7924,7.4723,-2.1332,1.2558,-1.1103,-1.3006,25.57
1881,1920,-4.3981,7.3957,-2.0087,0.8687,-0.8212,-0.7797,25.58
1891,1987,-4.0031,6.766,-1.9632,0.4178,-0.5156,-0.3192,25.57
1901,2000,-2.5211,6.6679,-2.2051,-0.0789,0.024,0.0544,25.59
1911,1915,-0.9601,6.7828,-1.9201,-0.6688,0.7914,0.3816,25.58
1921,1744,0.1891,7.0533,-0.7829,-1.2782,1.5186,0.6568,25.58
1931,1708,1.245,7.4675,1.3647,-1.6574,1.8482,0.874,25.57
1941,1727,2.2889,8.023,3.1867,-1.6355,1.6116,1.007,25.58
1951,1709,3.3567,8.5258,4.1492,-1.2782,0.9387,1.0509,25.58
1961,1714,4.4819,8.6407,4.0223,-0.7634,0.1186,0.9118,25.58
1971,1724,4.8961,8.8202,3.3902,-0.2454,-0.5961,0.5588,25.58
1981,1781,4.118,9.2512,2.8802,0.2041,-1.1327,0.1668,25.58
1991,1760,2.7222,9.6055,2.1404,0.6155,-1.4919,-0.0962,25.59
2001,1734,1.4269,9.584,1.0558,0.927,-1.6174,-0.2345,25.6
2011,1463,0.3328,9.4595,0.103,1.113,-1.4901,-0.3152,25.58
2021,2031,-0.4238,9.3613,-0.4741,1.1735,-1.1578,-0.3403,25.58
2031,4095,-0.9553,9.2536,-0.7494,1.1101,-0.7226,-0.284,25.59
2035,4095,-1.1229,9.153,-0.7685,1.044,-0.5457,-0.2284,25.6
2045,4095,-1.1301,8.7628,-0.5219,0.8127,-0.1495,-0.0301,25.6
2055,1702,-0.7877,8.3366,-0.1987,0.5425,0.1641,0.2006,25.59
2065,1402,-0.0694,8.5928,0.3232,0.3024,0.3611,0.4287,25.61
2075,1753,0.9433,9.0549,0.5746,0.0224,0.389,0.6531,25.6
2085,1710,1.9154,9.1937,0.4046,-0.2489,0.3746,0.7797,25.59
2095,1675,2.5977,9.5744,0.3089,-0.4719,0.4085,0.8284,25.6
2105,1704,3.1149,10.0389,0.3687,-0.623,0.4772,0.8434,25.61
2115,1712,3.5147,10.6925,0.747,-0.6824,0.5351,0.8386,25.61
2125,1705,3.9145,11.4084,1.4916,-0.5915,0.5177,0.8466,25.59
2135,1742,4.3335,12.1075,2.2793,-0.3523,0.3696,0.9105,25.61
2145,1761,4.5825,12.6414,2.9377,-0.0616,0.0504,1.0986,25.61
2155,1791,5.3391,12.3589,3.0526,0.1156,-0.3547,1.299,25.61
2165,1795,6.031,11.7124,3.2513,-0.0013,-0.7269,1.2942,25.61
2175,1814,5.8419,11.0277,4.6352,-0.4218,-1.1106,1.0837,25.62
2185,1861,5.0015,10.7428,6.4787,-0.7464,-1.6387,0.8442,25.62
2195,1901,4.7764,10.726,7.4436,-1.1186,-1.6894,0.6382,25.62
2205,1931,4.7357,10.6901,8.1475,-1.5596,-0.911,0.3062,25.61
2215,1981,4.3718,10.6901,8.6095,-1.9545,0.5907,-0.1836,25.6
2225,2055,3.5099,10.6662,9.3565,-1.9684,2.2058,-0.7658,25.61
2235,2098,2.8874,10.5489,9.6319,-0.9777,3.0342,-1.4602,25.62
2245,2143,3.4189,10.0221,8.4851,0.8431,2.7995,-2.2338,25.61
2255,2272,3.8906,9.2919,6.3734,2.4928,1.9926,-2.8194,25.61
2265,2295,3.8188,8.1882,4.2689,3.5165,1.0325,-2.9154,25.6
2275,2343,3.4093,7.6495,1.8483,3.6122,0.2201,-2.5983,25.62
2285,2369,2.3391,6.5577,0.1437,2.9703,-0.5636,-2.0877,25.62
2295,2370,1.5514,5.6599,-1.9201,2.104,-1.4325,-1.3678,25.62
2305,2269,1.3431,5.6599,-3.1388,1.0424,-2.1173,-0.4868,25.62
2315,2135,1.4796,6.1124,-3.2058,-0.2188,-2.4912,0.429,25.63
2325,2017,1.5945,7.0581,-2.32,-1.5604,-2.679,1.1844,25.63
2335,1953,1.3384,8.6766,-0.486,-2.8032,-2.7675,1.7984,25.61
2345,1923,0.9457,9.9503,2.2817,-3.6929,-2.6846,2.2567,25.61
2355,1911,0.8835,10.6757,5.5186,-3.873,-2.2372,2.319,25.62
2365,1872,1.3838,10.9559,8.2839,-3.12,-1.3592,1.7027,25.6
2375,1860,1.4629,11.3605,9.0908,-1.7664,-0.2611,0.4919,25.61
2385,1856,1.0822,11.3413,8.1211,-0.2129,0.842,-0.761,25.62
2395,1854,0.6464,10.6973,5.9472,1.1532,1.7046,-1.8234,25.62
2405,1877,0.17,10.0533,3.8355,2.0611,2.1674,-2.5407,25.63
2415,1967,-0.0718,9.1554,2.138,2.6167,2.3513,-2.7539,25.61
2425,1952,-0.0503,8.2241,0.7973,2.9218,2.5141,-2.4203,25.62
2429,1959,-0.079,7.7021,0.498,2.9902,2.5596,-2.1861,25.62
2439,1999,0.1149,6.4284,0.1197,3.0406,2.4563,-1.4975,25.62
2449,2034,0.8667,5.2936,-0.4525,2.8125,2.0448,-0.8332,25.62
2459,2032,2.0782,4.2808,-1.2426,2.2881,1.5894,-0.3174,25.63
2469,2063,3.2825,3.7302,-1.7454,1.526,1.2614,0.0576,25.64
2479,2043,4.0247,3.2489,-1.5083,0.6502,1.0048,0.2891,25.65
2489,2087,4.1946,2.9449,-0.5052,-0.2214,0.6483,0.377,25.64
2499,2013,3.5817,3.158,0.5291,-0.9918,0.1191,0.3829,25.64
2509,2099,2.5019,4.0582,1.0343,-1.6233,-0.4506,0.4181,25.63
2519,2067,1.0463,5.9496,1.2761,-2.1357,-0.9499,0.5764,25.63
2529,2059,-0.3136,8.3917,1.3144,-2.4736,-1.3161,0.9523,25.64
2539,2047,-0.5794,9.7803,1.3982,-2.4754,-1.388,1.2769,25.62
2549,2026,-0.2514,10.2663,1.7885,-2.0195,-1.0344,1.3017,25.63
2559,2023,0.0622,10.6015,2.1763,-1.2199,-0.323,0.9641,25.63
2569,2032,0.3112,10.7308,2.2242,-0.2611,0.5828,0.4818,25.63
2579,2159,0.5507,10.41,1.6879,0.5468,1.4927,0.0003,25.62
2589,2224,0.7135,9.9096,1.3934,1.0693,2.2194,-0.3627,25.64
2599,2234,0.9912,9.2273,1.2617,1.3424,2.6196,-0.5529,25.64
2609,2253,1.3264,8.5952,1.1492,1.4189,2.6444,-0.5806,25.63
2619,2255,1.7597,8.0661,0.9888,1.3427,2.3667,-0.4959,25.64
2629,2204,2.1141,7.8075,0.6919,1.1482,1.9247,-0.3301,25.64
2639,2043,2.4636,7.7261,0.2466,0.8628,1.4591,-0.1244,25.64
2649,1919,2.7988,7.8721,-0.2682,0.5502,1.0424,0.0802,25.65
2659,1899,3.1316,8.1834,-0.6369,0.2569,0.7192,0.2374,25.62
2669,1916,3.3782,8.691,-0.6608,0.0554,0.4794,0.3312,25.63
2679,1926,3.553,9.1435,-0.4645,-0.0341,0.2742,0.3669,25.64
2689,1968,3.5578,9.6869,-0.0168,-0.0538,0.0234,0.3565,25.65
2699,1920,3.1891,10.5584,0.4645,-0.0616,-0.3437,0.3754,25.65
2709,1999,2.8371,11.2216,0.893,-0.1116,-0.7909,0.4359,25.65
2719,1879,2.2122,11.7819,1.2115,-0.1982,-1.198,0.4247,25.64
2729,1621,1.4868,11.9519,1.5562,-0.2238,-1.4178,0.2811,25.65
2739,2037,0.4334,12.1554,1.798,-0.0818,-1.3139,0.0341,25.65
2749,4095,-0.8954,12.4187,1.6831,0.2065,-0.8769,-0.1937,25.66
2759,4095,-1.968,12.9311,1.7669,0.5473,-0.3269,-0.2896,25.66
2769,3600,-2.6193,13.2136,1.5802,0.8847,0.2022,-0.2529,25.65
2779,1367,-2.49,13.0676,1.312,1.0584,0.7152,-0.1729,25.67
2789,1984,-1.7358,12.6414,1.3815,0.9353,1.1482,-0.122,25.66
2799,2144,-0.5794,12.287,1.6712,0.522,1.4376,-0.1423,25.68
2809,2141,0.7159,11.813,2.1883,-0.0581,1.6734,-0.1479,25.66
2819,2224,1.8962,11.5089,3.1077,-0.6046,1.877,-0.0624,25.66
2823,2250,2.4565,11.3772,3.5267,-0.7786,1.9353,0.0008,25.66
2833,2273,3.6536,11.0468,4.6495,-1.0613,1.955,0.2006,25.65
2843,2341,4.4508,10.4363,6.0861,-1.0581,1.6665,0.4093,25.65
2853,2403,5.4372,9.6965,6.8881,-0.801,1.0877,0.5486,25.66
2863,2447,5.5091,9.1722,7.446,-0.4101,0.3323,0.6262,25.66
2873,2483,4.549,8.8681,7.2018,-0.0165,-0.4796,0.663,25.67
2883,2475,2.794,8.7987,6.4236,0.3299,-1.173,0.6539,25.65
2893,2487,0.6847,9.0046,5.3056,0.5276,-1.5383,0.5705,25.64
2903,2523,-1.2282,9.2273,4.5514,0.7997,-1.5575,0.4503,25.67
2913,2512,-2.1572,10.3118,2.6695,1.1151,-1.1855,0.3587,25.68
2923,2539,-2.1141,11.4179,-0.0551,1.1927,-0.3078,0.2974,25.68
2933,2519,-1.6712,12.3134,-1.1971,0.9864,0.7525,0.2537,25.68
2943,2512,-0.3208,12.4403,-0.6704,0.7112,1.6673,0.2014,25.68
2953,2545,1.1779,12.2152,0.0838,0.5055,2.3286,0.114,25.66
2963,2544,2.4397,11.3677,0.4884,0.2888,2.7997,0.0738,25.67
2973,2543,3.4979,10.2137,1.4461,0.0016,3.0092,0.0386,25.68
2983,2579,4.5705,8.995,2.6264,-0.2649,2.8114,0.0277,25.65
2993,2598,5.4444,7.853,3.7757,-0.4237,2.2151,0.0208,25.66
3003,2559,5.8419,6.8738,4.4556,-0.453,1.3504,0.0192,25.66
3013,2487,5.4157,6.1196,4.616,-0.3627,0.3405,-0.0075,25.68
3023,2338,4.4412,5.545,4.1252,-0.1657,-0.6113,-0.0362,25.66
3033,2163,3.158,5.2074,3.1029,0.1391,-1.3483,-0.0258,25.67
3043,2031,1.8411,5.1404,1.6855,0.5172,-1.7928,0.0245,25.66
3053,1883,0.261,5.4085,0.0287,0.8791,-1.9228,0.0666,25.66
3063,1813,-1.2761,5.8419,-1.3719,1.2076,-1.7898,0.2411,25.67
3073,1779,-2.3128,5.9975,-2.0686,1.3291,-1.5849,0.4815,25.67
3083,1718,-2.4756,5.4923,-2.1572,1.2319,-1.4059,0.5622,25.67
3093,1721,-2.7222,5.5761,-2.3104,0.9571,-1.1887,0.5971,25.68
3103,1726,-2.3032,5.6096,-2.1141,0.4748,-0.9318,0.6742,25.69
3113,1761,-1.4605,5.6431,-1.5682,-0.113,-0.6025,0.7,25.66
3123,1739,-0.5818,5.9592,-0.838,-0.7123,-0.1791,0.7125,25.66
3133,1744,0.2729,6.4643,-0.0551,-1.2049,0.2955,0.7376,25.67
3143,1743,1.1612,6.9647,0.5938,-1.5511,0.7586,0.7421,25.68
3153,1760,2.0183,7.355,1.2426,-1.7408,1.149,0.6582,25.67
3163,1794,2.9377,7.92,2.0087,-1.6918,1.331,0.4594,25.68
3173,1841,3.8283,8.6167,2.5307,-1.3233,1.1786,0.1689,25.68
3183,1863,4.2018,9.1171,2.399,-0.7448,0.8106,-0.1332,25.69
3193,1840,4.0989,9.2584,2.0183,-0.1641,0.3805,-0.4026,25.69
3203,1856,3.5219,9.2656,1.5538,0.3523,-0.0394,-0.5764,25.67
3213,1861,2.648,9.2057,0.7661,0.7453,-0.3981,-0.6259,25.67
3217,1854,2.2673,9.1985,0.4142,0.8572,-0.5148,-0.6134,25.68
3227,1892,1.3647,9.244,-0.5459,1.016,-0.7437,-0.5071,25.69
3237,1936,0.5866,9.402,-1.6376,1.0027,-0.8418,-0.3222,25.67
3247,1935,0.1413,9.4308,-2.6647,0.8356,-0.7965,-0.1244,25.69
3257,1954,0.1149,9.4499,-3.1963,0.5601,-0.6235,0.0842,25.7
3267,1918,0.4836,9.5217,-3.0023,0.2462,-0.4135,0.2896,25.71
3277,1881,0.9553,9.8689,-2.2434,0.0032,-0.2934,0.4711,25.69
3287,1824,1.6281,10.3453,-1.4126,-0.069,-0.3786,0.623,25.68
3297,1803,1.9632,10.4148,-0.9936,-0.0168,-0.6166,0.725,25.69
3307,1815,1.6879,10.5704,-0.7446,0.0362,-0.9057,0.7541,25.69
3317,1815,1.2258,10.8984,-0.6991,0.0053,-1.1088,0.7821,25.69
3327,1792,0.9409,11.1666,-0.407,-0.097,-1.1367,0.7701,25.68
3337,1818,1.0056,11.4443,-0.2227,-0.2276,-0.93,0.6123,25.68
3347,1849,1.1301,11.9758,-0.067,-0.3501,-0.4501,0.3904,25.69
3357,1847,1.4581,12.7922,-0.0096,-0.3533,0.1284,0.32,25.68
3367,1819,2.0303,13.5177,0.182,-0.283,0.5812,0.4554,25.67
3377,1808,2.9018,13.7978,0.7901,-0.1655,0.822,0.7096,25.69
3387,1729,4.0103,13.6565,1.8842,0.0061,0.826,0.9427,25.69
3397,1515,5.2385,13.2375,2.8874,0.1319,0.6358,1.0581,25.69
3407,1351,6.3662,12.6294,3.5913,0.0402,0.303,0.9385,25.69
3417,1223,6.8809,11.9973,4.0725,-0.2478,-0.0285,0.6515,25.68
3427,1223,6.8115,11.3725,4.5849,-0.6915,-0.2643,0.2414,25.68
3437,1186,6.1435,10.7883,5.4348,-1.105,-0.2729,-0.1689,25.69
3447,1232,5.4755,9.9742,6.2728,-1.3379,-0.0765,-0.5572,25.69
3457,1270,4.4843,9.347,6.936,-1.2761,0.2774,-0.9209,25.69
3467,1277,3.3567,8.7915,7.1922,-0.8402,0.684,-1.2063,25.67
3477,1291,2.5929,8.1092,6.7277,-0.1623,0.9427,-1.4077,25.68
3487,1278,2.2218,7.6662,5.5665,0.5457,0.7917,-1.4714,25.69
3497,852,2.1332,7.5705,3.7757,1.0043,0.1769,-1.2497,25.7
3507,2305,2.2769,7.4603,2.0399,1.0893,-0.6923,-0.732,25.7
3517,4095,2.5618,7.3598,0.2849,0.7821,-1.5617,-0.0549,25.7
3527,4095,2.8491,7.5202,-0.7135,0.2321,-2.2966,0.6038,25.7
3537,1441,2.9568,8.4204,-0.8116,-0.3717,-2.7728,1.1969,25.7
3547,967,3.2633,9.4499,-0.2705,-0.8998,-2.9393,1.6145,25.7
3557,1478,3.5458,10.3956,0.5243,-1.2175,-2.7451,1.793,25.7
3567,1394,3.8762,10.8601,1.6688,-1.3326,-2.2735,1.6473,25.71
3577,1379,3.6368,10.9894,2.6911,-1.2923,-1.5791,1.1461,25.7
3587,1456,3.0909,10.6542,3.5817,-1.0738,-0.7933,0.4303,25.69
3597,1440,2.1021,9.8928,3.8259,-0.6797,-0.0394,-0.2723,25.7
3607,1456,1.3431,8.8681,3.5267,-0.2729,0.5668,-0.8037,25.68
3611,1469,1.1013,8.4874,3.3495,-0.1178,0.7663,-0.9643,25.69
3621,1422,0.6416,7.6782,2.7892,0.2539,1.1103,-1.2878,25.69
3631,1456,0.3879,6.9983,1.8507,0.5239,1.2313,-1.505,25.7
3641,1500,0.3543,6.426,0.7422,0.635,1.2388,-1.582,25.7
3651,1535,0.6416,5.9185,0.0383,0.6211,1.1511,-1.5492,25.7
3661,1521,0.9649,5.7006,-0.3208,0.5478,1.0523,-1.3627,25.72
3671,1600,1.5395,5.4851,-0.5459,0.4509,0.9241,-1.0555,25.72
3681,1616,2.1596,5.3702,-0.6081,0.3621,0.7762,-0.6899,25.71
3691,1665,2.6863,5.4348,-0.5171,0.2864,0.566,-0.3328,25.71
3701,1664,3.1939,5.679,-0.3065,0.2305,0.3371,-0.0192,25.72
3711,1744,3.4884,6.0478,-0.0527,0.1777,0.1479,0.2401,25.71
3721,1758,3.4955,6.3925,0.1077,0.0629,-0.0253,0.4135,25.71
3731,1820,3.3495,6.8522,0.4214,-0.0863,-0.1583,0.4807,25.71
3741,1869,3.0598,7.3047,0.6009,-0.2385,-0.2086,0.4549,25.72
3751,1846,2.6528,7.671,0.7685,-0.3789,-0.1721,0.373,25.71
3761,1867,2.3343,7.92,0.7709,-0.478,-0.0703,0.2603,25.73
3771,1898,1.9273,8.0086,0.7183,-0.5407,0.105,0.1274,25.73
3781,1792,1.5682,7.9535,0.6369,-0.5614,0.3024,0.0128,25.72
3791,1693,1.1827,7.841,0.431,-0.5356,0.498,-0.0711,25.71
3801,1559,0.9912,7.7405,0.2753,-0.466,0.6915,-0.1404,25.7
3811,1485,0.8595,7.7596,0.0934,-0.3677,0.8828,-0.2353,25.72
3821,1407,0.814,7.8793,-0.1915,-0.2678,1.0968,-0.3027,25.72
3831,1387,0.8739,8.1379,-0.4214,-0.1447,1.3725,-0.3597,25.72
3841,1349,1.0702,8.6455,-0.5315,0.0149,1.6718,-0.373,25.73
3851,1321,1.4437,9.1578,-0.565,0.1831,1.9462,-0.3376,25.71
3861,1264,2.1739,9.7109,-0.17,0.3595,2.0827,-0.2702,25.71
3871,1353,3.0694,10.2807,0.5914,0.5809,1.9335,-0.2025,25.71
3881,1367,3.7493,10.7069,1.0439,0.833,1.457,-0.1183,25.71
3891,1328,4.1468,11.0636,1.1899,1.0283,0.7842,0.0027,25.71
3901,1322,3.7278,11.3868,0.7254,1.1237,0.1823,0.133,25.73
3911,1435,3.3591,11.6837,0.2107,1.0858,-0.1713,0.2614,25.71
3921,1633,3.3495,11.88,-0.1748,0.9329,-0.3424,0.3459,25.71
3931,1708,3.5362,12.1171,-0.2107,0.6803,-0.3861,0.3661,25.72
3941,1751,3.6081,12.5576,-0.0192,0.384,-0.3539,0.3309,25.72
3951,1743,3.3902,12.9502,0.3448,0.0997,-0.2587,0.3024,25.72
3961,1713,2.9928,13.1801,1.0918,-0.1111,-0.1252,0.296,25.71
3971,1728,2.4014,13.2351,2.2266,-0.1775,-0.024,0.2979,25.73
3981,1664,1.9225,13.1226,3.1125,-0.1319,0.028,0.2936,25.73
3991,1622,1.8507,12.6869,3.7565,-0.0554,0.0163,0.247,25.74
4001,1663,2.0087,12.1362,3.9768,0.0064,-0.0096,0.1532,25.73
4005,1667,1.992,11.9447,3.9121,0.012,-0.0181,0.1146,25.72
4015,1699,1.9034,11.6885,3.7565,-0.1039,-0.0208,0.0709,25.73
4025,1680,1.8675,11.3844,3.9385,-0.3493,-0.0301,0.0661,25.74
4035,1749,1.6041,11.0325,3.9911,-0.6283,0.0274,0.1196,25.72
4045,1808,0.8308,10.659,4.2234,-0.8426,0.1537,0.2374,25.72
4055,1857,0.5195,9.6319,4.3622,-0.9097,0.3344,0.3421,25.71
4065,1850,0.0311,8.9304,4.5442,-0.7925,0.6145,0.4088,25.73
4075,1895,-0.4932,8.1882,4.6519,-0.4471,0.8873,0.477,25.74
4085,1926,-0.8906,7.2401,4.3431,0.0645,1.1532,0.4722,25.72
4095,1954,-1.2282,6.3853,3.8331,0.6651,1.2764,0.3717,25.73
4105,1983,-1.1612,6.3829,2.5211,1.0858,1.2604,0.2294,25.73
4115,2032,-1.0032,7.5202,0.8667,1.1879,1.2422,0.2036,25.72
4125,2083,-0.6488,9.4044,-0.5291,0.9931,1.2998,0.4602,25.74
4135,2234,0.5914,10.829,-1.0558,0.6728,1.3427,0.9326,25.73
4145,2305,2.3152,11.4132,-0.7661,0.3056,1.3712,1.3835,25.74
4155,2417,4.3551,10.9918,0.1867,-0.0549,1.4554,1.6036,25.74
4165,2441,6.1268,10.6374,1.7621,-0.3608,1.5031,1.5356,25.74
4175,2446,7.7165,10.3166,3.7469,-0.5809,1.4301,1.2004,25.72
4185,2295,8.8322,10.137,5.5641,-0.6925,1.2809,0.7615,25.72
4195,2186,9.0405,9.5409,6.0669,-0.6917,1.2063,0.3632,25.74
4205,2143,8.3629,8.6862,5.9089,-0.684,1.1914,0.0226,25.73
4215,2135,7.0749,7.8051,5.4372,-0.5225,1.0373,-0.2249,25.72
4225,2128,5.6958,7.3741,4.4221,-0.1236,0.5894,-0.3752,25.72
4235,2155,4.4772,7.0509,3.0023,0.3994,-0.1223,-0.4469,25.74
4245,2144,3.1029,6.6032,1.7573,0.9161,-0.9188,-0.4514,25.74
4255,2128,1.5658,6.28,0.5962,1.3336,-1.5644,-0.413,25.72
4265,2131,0.2753,5.8778,-0.9457,1.5679,-1.9233,-0.3517,25.72
4275,2185,-1.2234,5.9328,-2.6217,1.4663,-1.9148,-0.3512,25.73
4285,1934,-2.8084,5.7581,-2.6983,1.1884,-1.6038,-0.2553,25.72
4295,2134,-3.3591,5.4636,-2.399,0.9411,-1.2092,-0.057,25.72
4305,4095,-2.6624,5.3223,-1.8747,0.7602,-0.9102,0.097,25.73
4315,4095,-1.8866,5.5545,-1.4341,0.6083,-0.7245,0.3008,25.73
4325,4095,-0.814,5.8754,-0.6656,0.4365,-0.5804,0.5017,25.74
4335,2210,0.091,6.1579,-0.158,0.202,-0.4916,0.6233,25.74
4345,2247,0.5842,6.6487,0.1867,-0.0514,-0.3445,0.6667,25.74
4355,2475,1.1061,7.1778,0.5555,-0.2324,-0.1412,0.6427,25.74
4365,2526,1.6376,7.616,0.6943,-0.3144,0.0272,0.5622,25.73
4375,2594,2.0566,8.0661,0.5411,-0.316,0.1268,0.4391,25.73
4385,2291,2.3511,8.351,0.2011,-0.2737,0.1761,0.2918,25.74
4395,2326,2.4924,8.5641,-0.1987,-0.2467,0.19,0.1378,25.74
4399,2367,2.4804,8.6526,-0.34,-0.2441,0.1887,0.0797,25.75
4409,2503,2.2865,8.8969,-0.7781,-0.2507,0.1615,-0.0378,25.74
4419,2657,1.9896,9.2105,-1.0415,-0.2385,0.0935,-0.1143,25.74
4429,2724,1.7382,9.5409,-1.2929,-0.1911,-0.0133,-0.138,25.74
4439,2792,1.7047,9.8761,-1.4509,-0.1146,-0.1444,-0.0951,25.74
4449,2878,1.8747,10.2041,-1.403,-0.0093,-0.2646,0.0136,25.74
4459,2960,2.2242,10.5369,-1.2067,0.1415,-0.3248,0.1545,25.74
4469,3007,2.5067,10.7595,-1.1037,0.3238,-0.3331,0.3104,25.75
4479,3071,2.8539,10.8362,-1.0271,0.5164,-0.3035,0.5305,25.76
4489,3139,3.1508,11.0875,-1.0032,0.7341,-0.2633,0.7754,25.74
4499,3226,3.8211,11.145,-0.8643,0.9329,-0.2254,1.0373,25.75
4509,3311,4.5705,11.4467,-0.9026,0.9329,-0.3112,1.2239,25.73
4519,3306,5.0781,11.6454,-1.2186,0.6819,-0.429,1.247,25.74
4529,3333,5.205,12.0835,-1.5323,0.2635,-0.4948,1.0976,25.74
4539,3354,4.8363,12.5193,-1.6903,-0.1524,-0.4338,0.8623,25.74
4549,3348,4.4173,12.6701,-1.1684,-0.377,-0.3264,0.5793,25.74
4559,3309,4.2497,13.0005,-0.7614,-0.2044,-0.2294,0.4386,25.75
4569,3279,4.3551,13.058,-0.5148,0.1756,-0.2518,0.4221,25.74
4579,3153,4.3718,13.3573,-0.6656,0.4583,-0.3496,0.497,25.74
4589,2978,4.7525,13.3788,-0.1604,0.5145,-0.4159,0.5689,25.75
4599,2794,5.0733,13.1418,0.4525,0.4498,-0.4295,0.5796,25.76
4609,2650,5.1595,12.7635,1.1301,0.2366,-0.4258,0.5276,25.76
4619,2512,5.2888,11.7986,2.0949,-0.1124,-0.3981,0.4266,25.76
4629,2399,4.8602,11.1642,2.6001,-0.4874,-0.3563,0.2361,25.76
4639,2347,4.5155,10.2185,3.1436,-0.9209,-0.2393,-0.0104,25.75
4649,2299,3.9887,9.5265,3.4812,-1.2406,-0.0354,-0.2888,25.73
4659,2256,2.9568,8.9783,3.7852,-1.3821,0.2475,-0.5193,25.74
4669,2206,2.1021,7.8697,3.6751,-1.3616,0.4882,-0.5833,25.74
4679,2176,2.2434,6.5864,4.0845,-0.9872,0.8292,-0.7083,25.74
4689,2147,2.5283,5.9807,4.1061,-0.271,1.1455,-0.8652,25.74
4699,2121,2.8826,5.9879,3.5099,0.4133,1.1876,-0.9022,25.75
4709,2077,3.2777,6.0478,2.0087,0.6635,0.9377,-0.6352,25.76
4719,2112,3.7828,5.3893,1.2426,0.4325,0.4852,-0.1988,25.75
4729,2108,4.1539,5.047,1.1205,0.0442,-0.1514,0.2643,25.77
4739,2113,4.063,5.2601,1.4868,-0.3123,-0.9379,0.7858,25.76
4749,2121,4.0941,6.0885,1.2498,-0.6073,-1.6619,1.3483,25.76
4759,2096,4.3766,7.027,1.1157,-1.0898,-2.2252,1.7933,25.74
4769,2109,3.7876,8.3869,1.4724,-1.7736,-2.6702,2.0203,25.75
4779,2087,2.7701,9.572,2.0542,-2.4118,-2.8027,2.1144,25.74
4789,2089,1.8794,10.4603,2.6767,-2.7339,-2.3931,1.9974,25.76
4793,2106,1.7406,10.75,2.8443,-2.7566,-2.047,1.8711,25.75
4803,2042,1.2713,11.4371,3.2825,-2.5194,-0.8623,1.3318,25.75
4813,1968,0.7039,11.7555,3.9145,-1.8594,0.4439,0.5585,25.75
4823,1913,0.3136,11.3677,4.1731,-0.8692,1.558,-0.2188,25.76
4833,1855,0.0958,10.5105,3.9049,0.1937,2.3361,-0.8753,25.74
4843,1773,0.5028,9.3039,3.2226,1.0845,2.813,-1.3627,25.74
4853,1671,0.9984,8.3342,2.5929,1.6936,3.0667,-1.6308,25.76
4863,1648,1.5754,7.4699,2.2529,2.0011,3.1253,-1.6475,25.75
4873,1614,1.8723,6.8043,1.7741,2.076,3.0251,-1.456,25.75
4883,1531,3.0454,6.3877,0.7494,1.9153,2.9436,-1.1309,25.76
4893,1472,4.64,5.8395,-0.1963,1.5823,2.9164,-0.7298,25.76
4903,1466,5.9017,5.7485,-0.237,1.1085,2.8464,-0.3517,25.74
4913,1482,6.6319,5.8083,0.0862,0.586,2.5253,-0.0029,25.74
4923,1462,7.0222,6.0597,0.5387,0.1316,1.9646,0.2822,25.76
4933,1436,6.7684,6.5457,0.972,-0.1671,1.2947,0.477,25.76
4943,1456,6.2297,6.9719,1.2905,-0.3347,0.6518,0.5825,25.75
4953,1346,5.6264,7.4005,1.482,-0.4437,0.0922,0.5838,25.76
4963,1232,4.8818,7.9464,1.5778,-0.4927,-0.3027,0.4986,25.76
4973,952,3.9983,8.5066,1.5036,-0.4506,-0.453,0.3845,25.77
4983,770,3.0981,8.9088,1.142,-0.296,-0.3432,0.2761,25.77
4993,656,2.3679,9.0716,0.5459,-0.052,-0.0192,0.1775,25.78
5003,551,1.8699,8.8945,-0.1652,0.1663,0.384,0.0698,25.79
5013,482,1.6185,8.7436,-0.4214,0.3243,0.725,-0.0112,25.79
5023,558,1.573,8.5904,-0.3687,0.4559,0.9931,-0.044,25.78
5033,606,1.7645,8.3965,-0.0599,0.566,1.2017,-0.0544,25.77
5043,565,2.1045,8.1547,0.1604,0.6494,1.3659,-0.0669,25.78
5053,560,2.6145,8.0828,0.4142,0.7141,1.4895,-0.0938,25.77
5063,432,3.146,8.1211,0.5674,0.7797,1.5471,-0.1122,25.78
5073,80,3.5961,8.2935,0.4836,0.8404,1.5713,-0.118,25.77
5083,1341,3.9863,8.5138,0.261,0.8537,1.5644,-0.0919,25.79
5093,4095,4.3024,8.8178,0.2921,0.8356,1.4791,-0.0277,25.77
5103,3632,4.6567,9.0597,0.577,0.8194,1.2465,0.0807,25.77
5113,0,4.8028,9.3039,0.8835,0.8452,0.8961,0.199,25.78
5123,0,4.549,9.7109,1.0343,0.9156,0.5385,0.3118,25.78
5133,0,3.9672,10.1754,0.9888,0.9982,0.2707,0.4397,25.78
5143,0,3.5147,10.3142,0.8021,1.0214,0.1098,0.5249,25.79
5153,0,3.134,10.3837,0.5219,0.9529,0.0338,0.534,25.79
5163,0,2.8659,10.398,0.3543,0.8303,0.0442,0.4762,25.79
5173,0,2.569,10.5848,0.3328,0.7165,0.1828,0.3781,25.76
5183,0,2.2505,10.9583,0.5315,0.6947,0.4154,0.2902,25.78
5187,0,2.15,11.1115,0.6608,0.7234,0.5204,0.2609,25.77
5197,0,2.1308,11.6262,1.1085,0.8889,0.7541,0.1956,25.78
5207,0,2.2051,12.2727,1.5203,1.1285,0.8724,0.1823,25.76
5217,0,2.32,12.8952,1.8268,1.3643,0.8703,0.2475,25.78
5227,0,2.5857,13.034,1.913,1.4815,0.8415,0.32,25.78
5237,0,3.1436,12.6414,1.9369,1.347,0.8631,0.3126,25.76
5247,0,3.7709,12.062,2.0877,0.935,0.9782,0.2022,25.77
5257,0,4.3503,11.394,2.5115,0.3872,1.2446,0.0858,25.79
5267,0,4.7142,10.5393,3.4572,-0.0847,1.5743,0.0344,25.77
5277,0,4.6974,9.481,4.2306,-0.3816,1.8485,0.045,25.77
5287,0,4.2784,8.4515,4.9081,-0.4975,2.0331,0.1156,25.78
5297,0,3.6655,7.4986,5.4037,-0.4325,2.1138,0.2094,25.78
5307,0,2.6528,6.8881,5.5067,-0.1974,1.9985,0.3371,25.78
5317,0,1.5658,6.7995,4.9273,0.182,1.6563,0.5249,25.77
5327,0,0.5459,7.1539,3.5434,0.6014,1.1671,0.7266,25.78
5337,0,-0.3496,7.8051,1.9417,0.9398,0.6845,0.8836,25.77
5347,0,-0.8619,8.6981,0.8308,1.1575,0.32,0.988,25.77
5357,0,-1.0151,9.5457,0.0359,1.2436,0.1292,1.1074,25.78
5367,0,-0.4693,9.821,-0.6273,1.1647,0.2731,1.2303,25.79
5377,0,0.5602,10.2328,-0.2059,0.9987,0.7642,1.3262,25.78
5387,0,2.1668,10.58,0.5818,0.8194,1.4165,1.4272,25.78
5397,0,4.8363,10.3453,1.257,0.6043,2.1512,1.4067,25.77
5407,0,7.5705,9.8665,2.162,0.3768,2.9068,1.181,25.78
5417,0,9.4092,9.3853,2.8994,0.1524,3.4744,0.7973,25.79
5427,30,10.398,8.6742,3.7565,-0.0504,3.7441,0.3696,25.81
5437,112,10.0102,7.6495,3.9073,-0.1242,3.8216,0.0061,25.79
5447,240,9.4715,6.5434,5.4708,-0.0858,3.6583,-0.3016,25.77
5457,384,9.3733,4.7645,8.3558,0.5303,2.5775,-0.7456,25.78
5467,567,6.8785,4.4077,3.7134,0.9081,1.1922,-1.1415,25.78
5477,634,4.2569,5.715,-0.34,0.5209,0.4117,-0.9145,25.79
5487,841,2.9497,5.5689,-1.5897,0.0013,-0.1439,-0.413,25.77
5497,935,1.8771,5.7964,-2.6097,-0.3429,-0.5196,-0.0576,25.78
5507,1136,0.8691,6.4596,-2.6983,-0.417,-0.7027,0.2825,25.79
5517,1311,0.6776,6.9671,-2.0279,-0.1951,-0.8335,0.5644,25.79
5527,1488,0.8236,7.5417,-1.3958,0.1207,-0.8852,0.7562,25.8
5537,1793,1.494,8.0613,-0.7949,0.3832,-0.8673,0.862,25.79
5547,1995,2.162,8.3582,-0.7638,0.4319,-0.7663,0.8378,25.78
5557,2290,2.8371,8.4827,-0.644,0.2918,-0.5614,0.6931,25.79
5567,2657,3.4213,8.5593,-0.1341,0.1231,-0.3035,0.4676,25.79
5577,2944,3.8475,8.6503,0.1389,0.0125,-0.0362,0.2348,25.78
5581,3061,3.9863,8.734,0.1101,-0.0085,0.0735,0.1484,25.79
5591,3701,4.2377,8.8322,-0.1245,-0.0149,0.3339,-0.0458,25.8
5601,4095,4.4652,8.7891,-0.2945,-0.0083,0.5324,-0.1807,25.78
5611,4095,4.288,8.4515,-0.7446,-0.0333,0.6033,-0.2403,25.78
5621,4095,3.8978,8.0661,-0.8859,-0.1463,0.6323,-0.1681,25.8
5631,4095,3.7038,8.0325,-0.7757,-0.2763,0.5804,-0.0317,25.79
5641,4095,3.4884,8.1259,-0.5818,-0.3573,0.4898,0.117,25.79
5651,4095,3.45,8.3127,-0.395,-0.3709,0.4053,0.2526,25.8
5661,4095,3.4261,8.5904,-0.3903,-0.32,0.3086,0.3683,25.78
5671,4095,3.3519,8.8059,-0.4645,-0.2435,0.2598,0.4604,25.79
5681,4095,3.3902,8.9615,-0.3639,-0.1596,0.2238,0.5231,25.8
5691,4095,3.2848,9.2416,-0.0527,-0.0322,0.1596,0.5929,25.79
5701,4095,3.5291,9.5624,0.2394,0.1982,0.02,0.648,25.8
5711,4095,4.051,9.7229,0.4908,0.5009,-0.1847,0.6347,25.79
5721,4095,4.5729,9.9144,0.565,0.8021,-0.4354,0.6033,25.81
5731,4095,5.0781,10.3549,0.2514,1.0384,-0.6805,0.6027,25.8
5741,4095,5.691,10.9271,-0.2777,1.1527,-0.8775,0.647,25.79
5751,4095,6.462,11.9471,-0.4405,1.1684,-0.992,0.7226,25.8
5761,4095,7.4891,12.3397,-0.34,1.1714,-0.988,0.8231,25.8
5771,4095,8.7005,11.971,-0.0048,1.0323,-0.8687,0.825,25.8
5781,4095,9.5026,11.6334,0.2921,0.6619,-0.5423,0.724,25.8
5791,4095,9.8354,10.9367,0.5818,-0.0725,0.0285,0.6022,25.8
5801,4095,8.9016,10.3717,1.5874,-0.8881,0.7131,0.5588,25.8
5811,4095,7.7955,9.0884,2.4517,-1.7829,1.2345,0.7226,25.81
5821,4095,7.5489,7.2568,3.8259,-2.2428,1.4496,0.7229,25.8
5831,4095,7.4651,6.4787,4.9392,-2.0062,1.3438,0.4583,25.81
5841,4095,7.3813,6.9599,5.4324,-1.4064,0.7453,-0.0648,25.8
5851,4095,6.4859,7.7117,4.8339,-0.6619,-0.2555,-0.6771,25.79
5861,4095,4.7429,7.8793,3.3854,0.037,-1.1562,-1.0368,25.77
5871,4095,2.988,7.173,1.8148,0.5068,-1.7224,-1.0898,25.81
5881,4095,1.4317,5.7772,0.7302,0.6702,-1.9401,-0.9566,25.82
5891,4095,0.2945,4.4843,-0.0287,0.6699,-1.9838,-0.6979,25.8
5901,4095,-0.1532,3.4955,-0.4262,0.5239,-1.85,-0.2955,25.81
5911,3499,0.3591,2.7964,-0.5483,0.1937,-1.5263,0.1657,25.81
5921,3155,1.3623,2.6887,-0.0239,-0.3435,-1.1525,0.5097,25.81
5931,3133,2.4445,3.3758,0.8906,-0.9502,-0.8439,0.7394,25.8
5941,3024,3.4357,4.5945,1.6352,-1.4653,-0.6491,0.8932,25.81
5951,2970,4.1132,6.1938,1.9489,-1.7672,-0.5284,0.9982,25.82
5961,2942,4.6471,7.9847,1.9082,-1.8074,-0.4088,1.0488,25.82
5971,2877,5.0589,9.572,1.664,-1.618,-0.2284,0.9726,25.81
5975,2851,5.2409,10.082,1.5969,-1.4962,-0.1266,0.8948,25.82
5985,2756,5.5282,11.2839,1.4269,-1.1143,0.2238,0.5814,25.81
5995,2654,5.5258,11.971,1.3096,-0.6869,0.7669,0.263,25.81
6005,2534,5.5306,11.8968,1.4461,-0.3168,1.4293,0.0141,25.82
6015,2438,5.715,11.1235,1.8531,-0.0661,2.0371,-0.1956,25.81
6025,2382,6.0478,10.3477,2.5379,0.0461,2.4171,-0.352,25.8
6035,2343,6.6726,9.3925,3.2825,0.0506,2.4749,-0.4716,25.82
6045,2289,7.3454,8.5258,3.893,0.0253,2.2476,-0.5295,25.82
6055,2261,7.8003,7.8506,3.9385,0.0085,1.793,-0.5468,25.8
6065,2228,7.9751,7.5537,3.4477,-0.0296,1.2385,-0.4916,25.82
6075,2195,7.7476,7.4962,2.4086,-0.0839,0.7093,-0.352,25.83
6085,2176,7.4077,7.5346,1.3815,-0.1282,0.315,-0.1506,25.79
6095,2135,7.1994,7.5106,0.7063,-0.1183,0.0568,0.0266,25.79
6105,2133,6.9001,7.5346,0.4046,-0.0629,-0.1266,0.1503,25.82
6115,2103,6.4356,7.4579,0.2634,0.0432,-0.2622,0.2414,25.82
6125,2025,5.8969,7.288,0.2921,0.1671,-0.3528,0.3075,25.82
6135,1936,5.3367,7.0844,0.4621,0.2753,-0.4045,0.3579,25.81
6145,1793,4.7046,6.8067,0.5866,0.3405,-0.4207,0.392,25.83
6155,1653,4.1755,6.5218,0.7063,0.3464,-0.3805,0.4194,25.8
6165,1457,3.8547,6.3303,0.893,0.3195,-0.2705,0.4042,25.82
6175,1303,3.4979,6.2848,0.9002,0.2854,-0.1069,0.3637,25.83
6185,1199,3.5937,6.292,0.984,0.2305,0.0962,0.3078,25.82
6195,1082,3.7948,6.3949,1.1444,0.2078,0.2641,0.1998,25.84
6205,957,3.9097,6.4476,1.2378,0.2262,0.433,0.1146,25.82
6215,893,4.0175,6.359,1.3096,0.2987,0.5836,0.0109,25.82
6225,784,4.1803,6.4093,1.312,0.3906,0.7413,-0.0869,25.82
6235,677,4.5993,6.5098,1.3168,0.4687,0.8942,-0.1663,25.81
6245,575,5.0805,6.6679,1.3168,0.5116,1.0365,-0.2486,25.82
6255,569,5.5091,6.8522,1.3312,0.5049,1.1666,-0.3067,25.82
6265,690,5.8993,6.9911,1.4222,0.4578,1.2678,-0.3371,25.83
6275,592,6.1651,7.1395,1.5778,0.3781,1.3576,-0.3397,25.84
6285,463,6.4572,7.1994,1.8771,0.295,1.4389,-0.316,25.84
6295,290,6.7133,7.264,2.1572,0.21,1.5263,-0.2782,25.82
6305,47,7.1922,7.3215,2.7007,0.1378,1.5836,-0.2473,25.82
6315,0,7.6974,7.4101,3.2394,0.1164,1.5607,-0.2356,25.82
6325,0,8.1834,7.5657,3.6536,0.1577,1.429,-0.2702,25.82
6335,0,8.2887,7.7548,3.6655,0.2595,1.19,-0.3352,25.84
6345,0,7.9535,7.9296,3.225,0.3624,0.8804,-0.4061,25.85
6355,0,7.0342,8.1762,2.4445,0.4162,0.6395,-0.4306,25.84
6365,0,6.2034,8.4779,1.8052,0.462,0.5319,-0.4138,25.83
6369,0,5.964,8.5712,1.6376,0.4828,0.5177,-0.4042,25.83
6379,0,5.4875,8.8705,1.4174,0.5319,0.514,-0.3885,25.82
6389,0,5.1954,9.2847,1.6783,0.5846,0.5161,-0.3853,25.82
6399,0,4.9943,9.7659,2.0734,0.5993,0.493,-0.3544,25.82
6409,0,4.8291,10.4579,2.648,0.5391,0.4298,-0.2963,25.81
6419,0,4.7716,11.1019,3.0885,0.4271,0.3794,-0.1996,25.83
6429,0,4.8507,11.4658,3.3423,0.2899,0.3752,-0.1274,25.82
6439,0,4.968,11.4275,3.395,0.1324,0.3893,-0.1258,25.84
6449,0,4.8866,11.078,3.462,-0.0181,0.4349,-0.1492,25.83
6459,0,4.8243,10.4794,3.6176,-0.064,0.5321,-0.1202,25.83
6469,0,4.9799,9.8043,3.6368,0.0709,0.6646,-0.0663,25.84
6479,0,5.3271,8.8633,3.4931,0.3477,0.7959,-0.0354,25.84
6489,0,5.6,7.8506,3.225,0.652,0.8849,-0.0821,25.84
6499,0,5.7389,6.9264,2.9736,0.9483,0.838,-0.1468,25.85
6509,0,5.4875,6.1627,2.5762,1.1591,0.6131,-0.1852,25.83
6519,0,4.9009,5.6264,2.217,1.2335,0.2201,-0.1463,25.84
6529,0,4.2282,5.047,1.8531,1.2095,-0.2465,-0.1021,25.84
6539,0,3.1627,4.549,1.5682,1.0957,-0.6299,-0.1082,25.83
6549,0,1.8723,4.3862,1.2881,0.9374,-0.8207,-0.1298,25.82
6559,0,0.5938,4.6783,0.8595,0.716,-0.7666,-0.1159,25.83
6569,0,-0.2562,5.1906,0.5052,0.4258,-0.4842,-0.0298,25.85
6579,0,-0.4764,5.7221,0.2682,0.1356,-0.04,0.0525,25.84
6589,0,-0.3208,6.4548,-0.0838,-0.1506,0.5105,0.1154,25.84
6599,0,0.5171,7.2425,-0.2801,-0.4375,1.0874,0.1809,25.84
6609,0,1.8699,8.2432,-0.1987,-0.7274,1.5412,0.1982,25.83
6619,355,3.4477,10.1035,0.6177,-0.9721,1.7187,0.2515,25.83
6629,532,5.4923,12.1793,2.2003,-1.0928,1.4536,0.4794,25.84
6639,731,8.0397,13.0723,3.6727,-1.011,0.7879,0.6558,25.84
6649,945,10.0221,12.8281,4.3981,-0.7421,0.0562,0.5612,25.83
6659,947,10.7571,11.6023,4.4436,-0.3885,-0.4562,0.1663,25.83
6669,1104,9.7612,10.738,4.1659,-0.0714,-0.6219,-0.3424,25.81
6679,3885,8.2217,10.4315,4.1779,0.1892,-0.595,-0.6957,25.81
6689,4095,6.6726,10.0772,3.711,0.3802,-0.6054,-0.8657,25.82
6699,4095,5.454,9.4451,2.9856,0.4658,-0.7019,-0.9526,25.82
6709,2941,4.1372,8.9447,2.2362,0.4708,-0.8711,-0.9785,25.83
6719,3696,2.8922,8.6503,1.5083,0.4213,-1.0962,-0.9126,25.84
6729,4095,1.8411,8.3414,0.7566,0.3491,-1.3376,-0.7821,25.85
6739,4095,0.9888,7.8985,0.1484,0.2747,-1.5018,-0.6499,25.84
6749,4095,0.3208,7.6543,-0.3496,0.1935,-1.5396,-0.5297,25.84
6759,4095,0.0096,7.4244,-0.7805,0.0895,-1.4301,-0.4442,25.83
6763,4095,-0.0718,7.3885,-0.9218,0.044,-1.3419,-0.4269,25.83
6773,4095,0.0694,7.3909,-0.8787,-0.0578,-1.0565,-0.4263,25.84
6783,4095,0.3591,7.5489,-0.7542,-0.1569,-0.7781,-0.4644,25.84
6793,4095,0.5938,7.8554,-0.5483,-0.284,-0.5798,-0.4439,25.85
6803,4095,0.9888,8.2217,-0.3543,-0.4146,-0.4866,-0.3533,25.85
6813,4095,1.47,8.7077,-0.0359,-0.5191,-0.4855,-0.2057,25.82
6823,4095,2.1644,9.1267,0.4334,-0.5364,-0.5542,-0.0592,25.84
6833,4095,2.8299,9.3829,0.8212,-0.4455,-0.6483,0.0306,25.84
6843,4095,3.201,9.4451,0.9936,-0.2726,-0.7099,0.0413,25.84
6853,4095,3.3447,9.4739,1.1277,-0.0727,-0.7232,0.0019,25.83
6863,4095,3.3495,9.4763,1.1133,0.1186,-0.7253,-0.0498,25.82
6873,4095,3.225,9.3709,0.9912,0.2465,-0.7157,-0.0791,25.82
6883,4095,3.0957,9.1985,0.8499,0.2907,-0.7181,-0.0746,25.84
6893,4095,3.0598,9.1099,0.5914,0.2742,-0.7192,-0.0442,25.83
6903,4095,3.1316,9.2177,0.2203,0.2017,-0.7133,-0.0173,25.84
6913,4095,3.1053,9.2751,-0.0982,0.1252,-0.6723,0.0152,25.84
6923,4095,3.0885,9.2512,-0.2873,0.0578,-0.5889,0.0597,25.84
6933,4095,3.1388,9.0333,-0.2658,-0.0091,-0.4826,0.0687,25.84
6943,4095,3.1627,8.8346,-0.0192,-0.0434,-0.3818,0.0365,25.84
6953,4095,3.1244,8.6766,0.2131,-0.0325,-0.3024,-0.0088,25.84
6963,4095,3.134,8.5234,0.3926,-0.0131,-0.2398,-0.0461,25.84
6973,4095,3.1939,8.3629,0.407,-0.0179,-0.2006,-0.0616,25.84
6983,4095,3.2992,8.2265,0.3089,-0.0368,-0.1753,-0.0754,25.84
6993,4095,3.462,8.193,0.17,-0.061,-0.1732,-0.0855,25.86
7003,4095,3.6727,8.1642,-0.0072,-0.0858,-0.1889,-0.089,25.84
7013,3923,3.9456,8.181,-0.1341,-0.1271,-0.2222,-0.0898,25.84
7023,3712,4.2018,8.26,-0.2562,-0.1668,-0.2795,-0.0861,25.83
7033,3899,4.2976,8.3749,-0.3448,-0.1998,-0.3419,-0.0677,25.85
7043,3481,4.4532,8.4851,-0.1891,-0.2121,-0.4391,-0.0488,25.84
7053,3377,4.3742,8.576,-0.0599,-0.2086,-0.5561,-0.0421,25.86
7063,3442,4.0989,8.7293,0.1556,-0.1759,-0.6872,-0.0365,25.87
7073,3245,3.6176,8.8681,0.2155,-0.1383,-0.801,-0.0181,25.84
7083,3248,3.0789,8.9567,0.2322,-0.11,-0.8665,0.0013,25.84
7093,3276,2.4636,9.1842,0.0096,-0.0909,-0.8903,0.0029,25.84
7103,3210,2.0016,9.4284,-0.1963,-0.0717,-0.8508,0.0165,25.84
7113,2960,1.7119,9.6271,-0.4238,-0.0386,-0.7496,0.053,25.84
7123,3058,1.7837,9.6558,-0.6297,0.0117,-0.5726,0.1055,25.85
7133,2785,2.2649,9.7348,-0.6991,0.0546,-0.4,0.1588,25.83
7143,2783,2.8922,9.7923,-0.6393,0.1122,-0.288,0.2292,25.83
7153,2768,3.4931,9.8282,-0.6297,0.1929,-0.215,0.3136,25.84
7157,2736,3.7062,9.8761,-0.5746,0.2321,-0.1913,0.3496,25.86
7167,2624,4.1372,9.8186,-0.4788,0.3429,-0.1529,0.4479,25.84
7177,2559,4.6711,9.6223,-0.589,0.4245,-0.1516,0.4991,25.87
7187,2559,4.8866,9.5074,-0.6584,0.4349,-0.2049,0.5252,25.85
7197,2495,5.0733,9.493,-0.7422,0.4506,-0.2875,0.5577,25.85
7207,2429,5.0494,9.5792,-0.7207,0.4956,-0.3584,0.6094,25.84
7217,2442,5.3558,9.5768,-0.7661,0.5729,-0.421,0.6555,25.84
7227,2307,5.4444,9.912,-0.565,0.615,-0.5188,0.6662,25.84
7237,2302,5.3463,10.3286,-0.4932,0.6347,-0.6451,0.6875,25.84
7247,2255,5.2672,10.6087,-0.5148,0.5923,-0.7378,0.7144,25.84
7257,2320,5.3295,10.7524,-0.3136,0.5063,-0.7288,0.7005,25.84
7267,1974,5.3223,10.7021,-0.0335,0.4024,-0.631,0.615,25.84
7277,2005,5.3534,10.3932,0.3759,0.3064,-0.5017,0.5068,25.85
7287,1981,5.1667,9.8545,0.735,0.2078,-0.36,0.412,25.86
7297,1918,4.7836,9.4044,1.1133,0.1252,-0.2419,0.3349,25.84
7307,1855,4.2713,8.8969,1.3048,0.0901,-0.1231,0.2694,25.85
7317,1838,3.632,8.588,1.1492,0.0722,-0.0695,0.1761,25.85
7327,1927,2.9951,8.4204,0.9122,0.0605,-0.0013,0.1231,25.85
7337,1875,2.3056,8.3414,0.565,0.0855,0.0711,0.1372,25.86
7347,1882,1.9489,8.2432,0.2394,0.1268,0.1252,0.2356,25.87
7357,1839,1.7119,8.193,-0.1413,0.1519,0.1529,0.4061,25.84
7367,1447,1.7071,8.0493,-0.5986,0.1338,0.1569,0.6392,25.85
7377,1302,1.8435,8.0756,-0.8021,0.0778,0.1284,0.878,25.88
7387,1137,2.0973,8.272,-0.7661,0.0213,0.0525,1.1016,25.85
7397,1002,2.5307,8.4348,-0.6009,-0.0125,-0.0362,1.2979,25.86
7407,887,2.9137,8.6479,-0.3759,-0.0056,-0.0834,1.4234,25.86
7417,906,3.2896,8.7891,-0.2442,0.0349,-0.0144,1.4938,25.85
7427,924,3.7541,8.8562,0.1891,0.064,0.1436,1.4408,25.87
7437,364,4.1061,8.8083,0.5411,0.0946,0.3464,1.2516,25.87
7447,339,4.3742,8.5784,0.9098,0.1415,0.6009,1.0118,25.86
7457,417,4.5825,8.1259,1.3192,0.199,0.8508,0.716,25.87
7467,209,4.7429,7.7548,1.3503,0.2918,1.096,0.4269,25.87
7477,0,4.6639,7.3789,1.1779,0.2958,1.3009,0.2281,25.86
7487,1813,4.537,7.1754,1.1037,0.2435,1.4695,0.1569,25.86
7497,4095,4.64,7.1108,0.9792,0.1831,1.5775,0.166,25.87
7507,3283,4.944,7.2568,0.8068,0.1426,1.6012,0.2126,25.87
7517,0,5.442,7.5561,0.6225,0.142,1.5426,0.2785,25.86
7527,100,5.9903,7.8434,0.5124,0.1729,1.421,0.3352,25.88
7537,422,6.596,8.1475,0.407,0.2289,1.2385,0.3944,25.85
7547,159,7.1323,8.3103,0.3974,0.284,1.06,0.4389,25.86
7551,54,7.3981,8.3917,0.4812,0.3184,0.9651,0.4437,25.87
7561,12,7.6614,8.5353,0.6129,0.3802,0.8234,0.4391,25.86
7571,80,7.9128,8.6143,0.8547,0.4386,0.6901,0.4194,25.85
7581,0,7.9966,8.6167,1.1253,0.4906,0.5897,0.3709,25.85
7591,0,7.8266,8.5928,1.3479,0.5388,0.5343,0.3056,25.86
7601,15,7.5561,8.4874,1.494,0.5633,0.5225,0.2377,25.85
7611,26,7.0701,8.3366,1.3647,0.5705,0.5273,0.1745,25.88
7621,64,6.5386,8.193,1.1708,0.5761,0.5265,0.1191,25.87
7631,97,5.8993,8.0493,0.8835,0.5841,0.534,0.0925,25.85
7641,128,5.5162,7.9871,0.6823,0.5915,0.5311,0.0917,25.87
7651,195,5.351,7.932,0.5339,0.6126,0.5002,0.0965,25.85
7661,305,5.193,7.9775,0.3519,0.6312,0.4951,0.1207,25.87
7671,409,5.2936,8.0134,0.2059,0.6736,0.474,0.1314,25.87
7681,482,5.3463,8.0732,0.0407,0.7229,0.4319,0.1228,25.87
7691,550,5.3917,8.0948,-0.1269,0.7445,0.3914,0.1159,25.85
7701,603,5.4731,8.0517,-0.1317,0.7522,0.3738,0.1127,25.85
7711,756,5.5929,7.932,0.0551,0.7631,0.3816,0.1058,25.86
7721,864,5.6838,7.7428,0.2682,0.7693,0.4061,0.0927,25.87
7731,867,5.9089,7.4531,0.4932,0.7645,0.4362,0.0791,25.88
7741,957,6.1196,7.1012,0.68,0.7634,0.4266,0.0405,25.87
7751,990,6.201,6.8546,0.7254,0.7461,0.356,-0.0096,25.88
7761,1088,6.2273,6.7277,0.656,0.7171,0.2332,-0.0528,25.88
7771,1150,5.9496,6.6774,0.3998,0.6728,0.1042,-0.0786,25.87
7781,1065,5.6743,6.7684,0.0766,0.6134,0.0378,-0.0786,25.85
7791,1023,5.4205,6.9599,-0.2514,0.5553,0.0322,-0.0749,25.87
7801,1088,5.0996,7.2401,-0.6177,0.4983,0.0839,-0.049,25.85
7811,1223,5.0853,7.4436,-0.8667,0.4381,0.2201,-0.0115,25.88
7821,1264,5.2912,7.5848,-0.9433,0.401,0.3429,-0.0115,25.87
7831,1290,5.533,7.7189,-0.9625,0.3738,0.4263,-0.0266,25.87
7841,1401,5.873,7.7883,-0.8499,0.348,0.4602,-0.0464,25.87
7851,1520,6.1651,7.829,-0.6584,0.3208,0.4636,-0.0584,25.88
7861,1616,6.4476,7.8602,-0.4214,0.2987,0.4695,-0.0616,25.88
7871,1711,6.6774,7.8506,-0.1772,0.2795,0.4903,-0.0602,25.88
7881,1821,6.8426,7.8721,0.012,0.2651,0.5124,-0.0517,25.86
7891,1853,6.9121,7.8195,0.0551,0.2523,0.5393,-0.0378,25.86
7901,2022,6.924,7.762,0.0958,0.2372,0.5617,-0.0274,25.86
7911,2157,6.8522,7.6543,0.0766,0.2214,0.5526,-0.0274,25.86
7921,2221,6.7038,7.604,0.0048,0.2145,0.5002,-0.0336,25.87
7931,2317,6.4596,7.5848,-0.2586,0.2196,0.4434,-0.0378,25.88
7941,2429,6.1603,7.5513,-0.4764,0.2241,0.4037,-0.0418,25.88
7945,2503,6.031,7.5417,-0.5578,0.2252,0.3914,-0.0434,25.88
7955,2607,5.8083,7.5393,-0.7757,0.23,0.3813,-0.0474,25.87
7965,2832,5.6479,7.5298,-0.929,0.2313,0.3802,-0.0533,25.87
7975,3153,5.6551,7.5226,-1.0151,0.2126,0.385,-0.0578,25.87
7985,3155,5.6647,7.5393,-0.9649,0.1889,0.3818,-0.0679,25.87
7995,3264,5.8059,7.5609,-0.8212,0.1753,0.3629,-0.0791,25.88
8005,3329,5.9711,7.5848,-0.6536,0.1775,0.3176,-0.0933,25.89
8015,3385,6.0741,7.5178,-0.4884,0.19,0.2451,-0.1111,25.87
8025,3440,6.11,7.4124,-0.3831,0.2084,0.1428,-0.1276,25.89
8035,3452,6.0885,7.2951,-0.3711,0.206,0.0408,-0.1247,25.88
8045,3148,6.1339,7.3526,-0.3879,0.1711,-0.0277,-0.1095,25.87
8055,2891,6.1483,7.2927,-0.4645,0.0922,-0.0775,-0.0775,25.88
8065,2970,6.1531,7.2903,-0.5148,-0.028,-0.1178,-0.0296,25.89
8075,2963,6.2201,7.2472,-0.589,-0.1625,-0.1178,0.0173,25.88
8085,2903,6.3446,7.1443,-0.6009,-0.3,-0.118,0.0274,25.89
8095,2928,6.4189,7.0677,-0.5339,-0.429,-0.1332,0.0045,25.88
8105,2843,6.2848,7.0797,-0.5195,-0.5247,-0.1372,-0.0328,25.88
8115,2839,6.0861,7.1491,-0.4956,-0.5737,-0.0818,-0.0725,25.89
8125,2827,5.9735,7.2065,-0.4908,-0.5918,-0.0237,-0.1167,25.88
8135,2951,5.8203,7.2856,-0.5818,-0.6035,0.0314,-0.1367,25.88
8145,2962,5.715,7.3765,-0.6464,-0.6174,0.0887,-0.1394,25.87
8155,2905,5.6527,7.4316,-0.6728,-0.6347,0.1362,-0.1442,25.87
8165,3011,5.5474,7.5298,-0.7733,-0.663,0.1879,-0.1356,25.88
8175,2976,5.5162,7.6806,-0.8236,-0.6859,0.2382,-0.1266,25.89
8185,2821,5.6623,7.8243,-0.7374,-0.6899,0.259,-0.1364,25.89
8195,2693,5.6982,7.9104,-0.8021,-0.6723,0.2619,-0.1601,25.89
8205,2559,5.6479,8.0493,-1.0343,-0.6672,0.3011,-0.1599,25.87
8215,2518,5.6407,7.9775,-0.8763,-0.6563,0.3435,-0.1564,25.89
8225,2503,5.6719,7.9799,-0.7039,-0.5889,0.3507,-0.1788,25.89
8235,2491,5.5186,8.0397,-0.7781,-0.5345,0.3515,-0.1849,25.88
8245,2534,5.5019,8.1618,-0.6752,-0.5113,0.372,-0.1487,25.87
8255,2437,5.5905,8.2361,-0.51,-0.4546,0.3509,-0.1292,25.87
8265,2435,5.5713,8.2815,-0.431,-0.3842,0.3381,-0.141,25.88
8275,2484,5.4061,8.327,-0.644,-0.3179,0.3523,-0.1516,25.89
8285,2227,5.4133,8.3486,-0.6153,-0.2694,0.3914,-0.1556,25.88
8295,1976,5.3223,8.3773,-0.7087,-0.2185,0.4223,-0.1641,25.87
8305,4061,5.193,8.3486,-0.8236,-0.1863,0.4519,-0.1514,25.87
8315,4095,5.1356,8.3222,-0.9505,-0.1772,0.4804,-0.1292,25.85
8325,4095,5.0829,8.3342,-0.9577,-0.2105,0.502,-0.0815,25.88
8335,2370,5.1308,8.339,-0.8715,-0.238,0.5257,-0.0413,25.88
8339,1838,5.138,8.3438,-0.8523,-0.2419,0.5396,-0.0338,25.88
8349,2141,5.1284,8.2169,-0.8308,-0.2577,0.6081,-0.0203,25.88
8359,2061,5.1715,8.0732,-0.7877,-0.3011,0.6997,-0.0179,25.89
8369,1921,5.3032,8.0014,-0.6895,-0.3627,0.773,-0.0171,25.89
8379,1905,5.4588,7.9344,-0.5746,-0.4077,0.8314,-0.0349,25.89
8389,1903,5.6216,7.9224,-0.4405,-0.425,0.8644,-0.0965,25.89
8399,1787,5.7533,7.9511,-0.328,-0.4215,0.8775,-0.1396,25.91
8409,1671,6.0406,7.9655,-0.17,-0.4101,0.8665,-0.1529,25.89
8419,1678,6.4045,8.0038,0.0862,-0.3565,0.8002,-0.1748,25.89
8429,1653,6.6032,7.9344,0.1053,-0.2987,0.737,-0.186,25.89
8439,1481,6.8378,7.8147,0.1915,-0.279,0.6805,-0.1761,25.89
8449,1424,6.9552,7.7117,0.261,-0.2835,0.599,-0.1836,25.9
8459,1434,6.9432,7.5298,0.3256,-0.3174,0.5521,-0.2089,25.91
8469,1456,6.9887,7.5609,0.5555,-0.3304,0.4919,-0.2417,25.88
8479,1313,6.8115,7.6207,0.7518,-0.3309,0.4106,-0.2547,25.87
8489,1340,6.7062,7.616,0.7566,-0.3088,0.2976,-0.2731,25.87
8499,1305,6.4931,7.7524,0.6009,-0.2737,0.1767,-0.324,25.88
8509,1424,6.2513,7.8817,0.4836,-0.2134,0.0725,-0.3944,25.89
8519,1554,5.9041,7.8506,0.2753,-0.1665,0.0069,-0.4445,25.88
8529,1512,5.4875,7.9272,0.0958,-0.15,-0.0165,-0.4698,25.87
8539,1578,5.0996,8.0373,-0.1508,-0.1482,-0.0083,-0.4253,25.88
8549,1488,4.9656,7.9559,-0.1413,-0.1577,0.0096,-0.324,25.89
8559,1382,5.0613,7.7141,-0.1556,-0.1703,0.0005,-0.2673,25.89
8569,1360,5.0805,7.5178,-0.237,-0.1966,-0.0051,-0.2619,25.9
8579,1376,5.0111,7.501,-0.3759,-0.23,0.0019,-0.2739,25.91
8589,1184,5.0901,7.6279,-0.2825,-0.2443,0.0368,-0.243,25.88
8599,1070,5.3247,7.7261,-0.0694,-0.215,0.0266,-0.2324,25.89
8609,878,5.4516,7.7668,-0.0359,-0.1788,-0.0048,-0.2435,25.89
8619,715,5.4253,7.8195,-0.0551,-0.1663,-0.0139,-0.2555,25.89
8629,631,5.3463,7.8889,0.0622,-0.1564,0.0029,-0.279,25.9
8639,535,5.193,8.0158,0.2083,-0.1266,0.0509,-0.2721,25.89
8649,479,5.2146,8.0278,0.2442,-0.1013,0.0863,-0.2545,25.91
8659,477,5.2122,7.9703,0.2251,-0.0983,0.0911,-0.2409,25.89
8669,449,5.1811,7.8554,0.1772,-0.0973,0.1085,-0.2348,25.9
8679,465,5.2553,7.7859,0.1437,-0.0901,0.1324,-0.2675,25.89
8689,486,5.3582,7.8171,0.0718,-0.0866,0.1367,-0.3086,25.87
8699,546,5.3822,7.8961,-0.0096,-0.0751,0.1506,-0.3176,25.89
8709,605,5.4875,7.9296,-0.0934,-0.0722,0.1956,-0.2872,25.89
8719,615,5.679,7.9344,-0.1652,-0.0962,0.2531,-0.239,25.91
8729,679,5.9999,8.0325,-0.079,-0.1442,0.2582,-0.2126,25.9
8733,688,6.1555,8.0541,-0.0144,-0.1639,0.2427,-0.207,25.91
8743,759,6.3351,8.2791,-0.0407,-0.2196,0.1785,-0.1988,25.91
8753,823,6.4715,8.5162,-0.0718,-0.259,0.0914,-0.1865,25.91
8763,873,6.4907,8.758,-0.0742,-0.2563,-0.0037,-0.1857,25.89
8773,951,6.3542,8.9711,0.0168,-0.2028,-0.0946,-0.1895,25.89
8783,1013,6.1579,9.2153,0.3232,-0.1202,-0.2177,-0.1823,25.89
8793,1123,5.94,9.5122,0.4812,-0.0549,-0.3661,-0.1498,25.9
8803,1200,5.8323,9.73,0.4741,-0.089,-0.4815,-0.0698,25.89
8813,1267,5.861,9.6486,0.3807,-0.2894,-0.5446,0.0005,25.91
8823,1482,5.9137,9.1698,0.5674,-0.6281,-0.5375,0.0248,25.92
8833,1837,6.031,8.5066,1.0678,-0.9792,-0.4874,0.0258,25.92
8843,1957,6.3231,7.5872,1.6185,-1.2028,-0.4578,-0.0189,25.91
8853,2126,6.4236,7.3837,2.0351,-1.4061,-0.5356,-0.0733,25.9
8863,2281,6.7157,7.853,2.5402,-1.6433,-0.7738,-0.0853,25.9
8873,2390,7.0461,8.7724,2.9018,-1.8218,-1.1386,-0.0458,25.91
8883,2496,7.1515,10.0556,3.0263,-1.885,-1.5839,0.0237,25.9
8893,2608,6.9408,11.3749,2.9305,-1.7994,-1.983,0.1164,25.9
8903,2624,6.462,12.1242,2.9066,-1.4866,-2.2058,0.1889,25.9
8913,2695,5.7293,12.129,2.4373,-1.0629,-2.1965,0.1071,25.9
8923,2495,4.6615,11.8585,2.0758,-0.7152,-1.983,-0.1236,25.91
8933,2345,3.2896,11.4563,1.8962,-0.5065,-1.6118,-0.3248,25.92
8943,2463,2.1189,10.7595,1.968,-0.4005,-1.1431,-0.38,25.91
8953,2513,1.7071,9.9024,2.3942,-0.3675,-0.6848,-0.4218,25.9
8963,2594,1.7813,9.0405,3.0167,-0.3704,-0.3746,-0.4551,25.9
8973,2602,1.9656,8.2265,3.4046,-0.4042,-0.2316,-0.4487,25.89
8983,2516,2.1644,7.4101,3.5769,-0.4762,-0.121,-0.4218,25.91
8993,2409,2.3391,6.6248,3.7565,-0.5982,0.0216,-0.3688,25.92
9003,2298,2.4995,5.9783,4.063,-0.7152,0.1948,-0.3019,25.9
9013,2244,2.7078,5.4396,4.2306,-0.7853,0.3848,-0.2411,25.89
9023,2277,2.9113,5.1499,4.2066,-0.8223,0.5628,-0.1945,25.9
9033,2324,3.1508,5.1332,4.209,-0.7949,0.6883,-0.1529,25.91
9043,2331,3.4046,5.4157,3.9935,-0.7035,0.7184,-0.1194,25.92
9053,2411,3.6248,5.9017,3.8355,-0.5193,0.623,-0.0973,25.92
9063,2384,3.8427,6.4596,3.4668,-0.2459,0.4231,-0.0831,25.91
9073,2409,4.0055,6.9791,3.1244,0.053,0.1876,-0.0858,25.9
9083,2337,4.0582,7.4148,2.806,0.3224,-0.0035,-0.0989,25.91
9093,2047,4.0917,7.7021,2.6169,0.4962,-0.1026,-0.1215,25.9
9103,2889,4.1635,7.9152,2.5786,0.5524,-0.1013,-0.1527,25.91
9113,4095,4.3215,8.1116,2.7126,0.5097,-0.0213,-0.1777,25.9
9123,4095,4.561,8.3462,2.885,0.4008,0.1021,-0.1748,25.9
9127,4095,4.6878,8.4707,2.9951,0.348,0.1524,-0.1588,25.9
9137,2815,5.1188,8.8131,3.1987,0.2249,0.2513,-0.0794,25.9
9147,2103,5.7174,9.0884,3.4069,0.118,0.2947,0.024,25.91
9157,2404,6.2632,9.1578,3.3974,0.0266,0.3,0.073,25.91
9167,2352,6.5362,9.177,3.553,-0.0234,0.2795,0.0365,25.92
9177,2343,6.4955,9.0788,3.6392,-0.0205,0.2041,-0.0632,25.92
9187,2317,6.0334,8.8992,3.3782,0.0149,0.1132,-0.2009,25.91
9197,2342,5.3534,8.7197,2.9305,0.0618,0.057,-0.3238,25.91
9207,2320,4.6088,8.5736,2.5139,0.1202,0.0365,-0.3954,25.93
9217,2335,3.9265,8.3725,2.1787,0.1897,0.0224,-0.3978,25.92
9227,2342,3.4788,8.1666,2.0159,0.2753,-0.025,-0.3403,25.9
9237,2344,3.2082,7.8817,1.9728,0.3757,-0.1282,-0.2659,25.92
9247,2335,2.9951,7.6495,1.8124,0.4655,-0.2819,-0.1988,25.93
9257,2359,2.806,7.4292,1.5323,0.4895,-0.4541,-0.1415,25.92
9267,2384,2.6647,7.3622,1.3168,0.4277,-0.6225,-0.085,25.91
9277,2417,2.6432,7.4771,1.1947,0.2931,-0.7709,-0.0085,25.91
9287,2434,2.6719,7.7692,1.087,0.1111,-0.8767,0.0637,25.92
9297,2433,2.8467,8.0709,1.0511,-0.0653,-0.9294,0.0986,25.94
9307,2559,3.0813,8.2504,1.0487,-0.1668,-0.8468,0.1351,25.93
9317,2559,3.292,8.2241,0.9433,-0.2313,-0.5945,0.1676,25.92
9327,2545,3.5434,8.0517,0.8595,-0.307,-0.2268,0.1617,25.89
9337,2555,3.8068,7.8554,0.9481,-0.3776,0.1655,0.122,25.89
9347,2559,3.9672,7.6591,1.2091,-0.4045,0.4634,0.0562,25.9
9357,2611,4.0127,7.4555,1.3408,-0.3693,0.6033,-0.0317,25.91
9367,2617,3.9744,7.2712,1.2282,-0.3022,0.6067,-0.1207,25.91
9377,2591,3.8571,7.197,1.0558,-0.231,0.5249,-0.1799,25.9
9387,2501,3.8666,7.1108,0.9864,-0.1569,0.3576,-0.2105,25.92
9397,2474,3.8499,7.0485,0.7925,-0.0975,0.125,-0.2169,25.92
9407,2400,3.8211,7.0198,0.6704,-0.0869,-0.1218,-0.1793,25.92
9417,2373,3.7733,7.0797,0.5578,-0.1135,-0.3477,-0.121,25.93
9427,2288,3.7326,7.1251,0.5483,-0.1791,-0.55,-0.0253,25.91
9437,2234,3.6464,7.2113,0.4788,-0.2515,-0.6768,0.0781,25.91
9447,2301,3.6871,7.3813,0.6991,-0.3293,-0.7189,0.1929,25.93
9457,2259,3.7182,7.5298,0.7566,-0.3936,-0.7147,0.2838,25.91
9467,2256,3.8451,7.6255,0.8499,-0.4642,-0.636,0.3272,25.92
9477,2223,3.8666,7.7979,0.893,-0.5153,-0.5257,0.3192,25.92
9487,2208,3.8259,8.0661,1.0463,-0.5132,-0.3864,0.2817,25.91
9497,2224,3.8642,8.4659,1.257,-0.4317,-0.3003,0.2414,25.91
9507,2235,3.8355,8.8705,1.3431,-0.2838,-0.324,0.2174,25.93
9517,2218,3.9097,9.2512,1.3791,-0.0858,-0.461,0.2126,25.92
9521,2199,3.8978,9.3996,1.2833,0.0043,-0.5484,0.2084,25.91
9531,2189,3.7206,9.7564,0.8571,0.2262,-0.7879,0.1881,25.92
9541,2135,3.4764,10.161,0.3926,0.4157,-1.0259,0.1716,25.92
9551,2148,3.0837,10.647,-0.0958,0.5446,-1.1911,0.2033,25.93
9561,2167,2.8754,11.0875,-0.4669,0.6011,-1.2292,0.3,25.93
9571,2123,3.122,11.3988,-0.6752,0.5828,-1.0856,0.4413,25.93
9581,2111,4.1084,11.6143,-0.486,0.5377,-0.8631,0.5207,25.91
9591,2077,5.1906,12.0787,-0.1341,0.502,-0.6326,0.5668,25.91
9601,2071,6.177,12.5648,0.3974,0.5252,-0.4818,0.6763,25.9
9611,2018,7.1323,13.1202,0.9744,0.6009,-0.4703,0.8655,25.92
9621,1985,7.7285,13.4075,1.8531,0.652,-0.4956,1.1836,25.92
9631,1925,8.2432,12.9215,2.7701,0.663,-0.5375,1.4285,25.92
9641,1840,8.9016,12.0428,3.2801,0.5782,-0.5012,1.4517,25.92
9651,1754,9.3613,11.1091,3.8068,0.3174,-0.3296,1.2452,25.94
9661,1681,9.5385,10.2639,4.5226,-0.0266,0,0.8599,25.93
9671,1616,9.1219,9.5146,5.4324,-0.299,0.5281,0.3752,25.93
9681,1611,8.2432,8.7029,6.0956,-0.4397,1.165,-0.1516,25.92
9691,1678,7.1587,7.9607,6.4117,-0.4874,1.7674,-0.6419,25.93
9701,1719,6.1986,7.2209,6.6056,-0.4381,2.2215,-1.0467,25.92
9711,1776,5.2912,6.4356,6.3829,-0.2478,2.3736,-1.3739,25.92
9721,1791,4.8626,5.3989,5.6719,0.0229,2.092,-1.6398,25.93
9731,1791,4.8578,4.3503,4.8219,0.3691,1.3017,-1.8279,25.93
9741,1681,4.9201,3.6488,3.8978,0.6542,0.1897,-1.8383,25.92
9751,1499,4.6543,3.5578,3.0502,0.7285,-1.0808,-1.6289,25.92
9761,1463,4.6926,3.9816,1.8435,0.6147,-2.2092,-1.1287,25.92
9771,1458,4.5179,4.7621,0.9936,0.3232,-3.0361,-0.3456,25.92
9781,1483,4.3215,5.3079,0.7853,-0.2017,-3.6431,0.3757,25.9
9791,1498,3.881,6.1627,1.1827,-0.7437,-3.9508,0.8879,25.91
9801,1479,3.2226,7.4101,1.968,-1.1445,-3.8472,1.2292,25.91
9811,1493,2.5809,8.5449,2.6336,-1.3105,-3.266,1.4226,25.92
9821,1454,2.2817,9.4284,2.8395,-1.3115,-2.2735,1.3989,25.93
9831,1396,1.9345,9.8162,3.0885,-1.2859,-1.1812,1.1261,25.92
9841,1031,1.6855,9.7923,3.1412,-1.2047,-0.1945,0.5886,25.92
9851,1726,1.4102,9.5888,2.9018,-0.9595,0.651,0.0517,25.92
9861,4095,1.5083,9.0094,2.4876,-0.5905,1.2998,-0.3507,25.92
9871,4095,2.0901,8.1738,2.2146,-0.2353,1.6633,-0.7115,25.91
9881,1101,3.134,7.3622,2.0542,0.037,1.7496,-1.0403,25.91
9891,330,4.0199,6.8833,1.992,0.2308,1.6241,-1.2169,25.93
9901,992,4.7453,6.4572,1.8028,0.3512,1.3595,-1.186,25.92
9911,949,5.1571,6.3925,1.6065,0.4277,1.04,-0.9896,25.93
9915,941,5.2457,6.3925,1.5227,0.4493,0.9046,-0.8743,25.92
9925,933,5.4229,6.3159,1.3096,0.498,0.5748,-0.5345,25.92
9935,914,5.5689,6.1172,1.1756,0.5103,0.319,-0.1807,25.92
9945,961,5.5593,6.0717,1.2043,0.498,0.1327,0.1311,25.94
9955,975,5.6743,6.2417,0.9888,0.4151,0.1167,0.3768,25.95
9965,996,5.6934,6.4739,0.9409,0.1748,0.1697,0.5247,25.91
9975,1023,5.5354,6.778,1.1229,-0.1668,0.215,0.5324,25.91
9985,1034,5.1451,7.1323,1.47,-0.4751,0.2451,0.4477,25.94
9995,1040,4.5059,7.4651,1.6089,-0.688,0.2627,0.3277,25.93
10005,1064,3.7206,7.6758,1.5419,-0.7967,0.3032,0.2212,25.93
10015,1093,3.1244,7.7237,1.3408,-0.7735,0.4197,0.1282,25.93
10025,1130,2.5522,7.7883,1.1229,-0.6374,0.6158,0.0277,25.93
10035,1174,2.1739,7.7309,0.9409,-0.3984,0.8668,-0.049,25.93
10045,1178,2.1356,7.5274,0.7709,-0.1292,1.1309,-0.1143,25.94
10055,1257,2.3224,7.2927,0.7997,0.1239,1.3765,-0.1689,25.95
10065,1298,2.557,7.0844,0.9218,0.3251,1.5663,-0.1681,25.96
10075,1353,2.8323,6.7995,0.9601,0.4271,1.6832,-0.1188,25.93
10085,1417,3.0933,6.5505,1.0606,0.4138,1.7211,-0.064,25.94
10095,1485,3.3064,6.4667,1.1133,0.3192,1.6936,-0.0053,25.94
10105,1510,3.5314,6.6224,1.0918,0.2041,1.6577,0.0653,25.93
10115,1594,3.9552,6.9623,0.9625,0.1298,1.6721,0.1263,25.92
10125,1646,4.5346,7.4795,0.7877,0.1247,1.7712,0.162,25.93
10135,1632,5.2026,8.0565,0.8571,0.1916,1.9055,0.1729,25.96
10145,1613,5.9424,8.5329,1.087,0.3211,1.9705,0.1721,25.94
10155,1587,6.6319,8.8466,1.3144,0.5041,1.8551,0.1788,25.94
10165,1523,7.3382,9.0142,1.4724,0.6779,1.5039,0.2001,25.94
10175,1535,7.8841,9.1506,1.6568,0.8026,0.9252,0.2049,25.92
10185,1520,7.4915,9.4427,1.3815,0.8695,0.3174,0.2102,25.92
10195,1525,6.8714,9.7564,1.0151,0.8034,-0.1479,0.2334,25.93
10205,1578,6.1794,10.2185,0.838,0.6259,-0.5321,0.2595,25.93
10215,1612,6.201,10.5656,0.2753,0.2955,-0.7727,0.1996,25.94
10225,1630,5.7317,11.1666,0.577,-0.1196,-0.8889,0.0389,25.95
10235,1670,5.0446,11.9638,1.5347,-0.3701,-0.9068,-0.0573,25.95
10245,1715,4.4149,12.73,2.7653,-0.2896,-0.8631,-0.0738,25.93
10255,1771,4.1204,13.1801,3.6512,0.1026,-0.7829,-0.061,25.93
10265,1787,3.9121,13.0029,3.7733,0.5649,-0.6675,-0.0528,25.92
10275,1817,3.948,12.5241,3.7302,0.8825,-0.5108,-0.0613,25.93
10285,1882,4.4077,11.9686,3.486,0.9462,-0.315,-0.1298,25.95
10295,1932,5.035,11.3605,3.2322,0.7189,-0.06,-0.2284,25.93
10305,1981,5.5713,10.7691,3.3662,0.2936,0.1966,-0.2705,25.94
10309,2018,5.8155,10.568,3.5913,0.1021,0.2915,-0.2582,25.94
10319,2107,6.1914,9.8306,4.0534,-0.4008,0.5127,-0.1791,25.95
10329,2111,6.3446,8.8969,4.7453,-0.9313,0.6789,-0.142,25.94
10339,2147,6.1172,7.9966,5.6599,-1.3571,0.7592,-0.1585,25.94
10349,2148,5.1858,7.2065,6.687,-1.57,0.7309,-0.1537,25.94
10359,2178,3.8403,6.541,7.604,-1.5002,0.5966,-0.0578,25.94
10369,2233,2.2362,6.1603,8.1618,-1.0778,0.3656,0.1412,25.94
10379,2198,0.8308,5.8826,8.1594,-0.3613,0.1111,0.4037,25.92
10389,2224,-0.0359,5.861,7.1922,0.4634,-0.0778,0.623,25.94
10399,2170,-0.0958,5.9975,5.2672,1.1359,-0.097,0.6662,25.94
10409,2215,0.4357,6.1699,2.8515,1.4333,0.0882,0.4511,25.96
10419,2256,1.142,6.5793,0.7733,1.3312,0.4999,0.0703,25.95
10429,2394,1.6712,7.355,-0.6345,0.935,1.1178,-0.2902,25.93
10439,2449,2.2075,8.6455,-0.7518,0.4,1.8474,-0.4069,25.94
10449,2500,2.8778,11.0828,0.893,-0.1356,2.424,-0.0645,25.96
10459,2480,4.5705,12.7779,3.3112,-0.5601,2.4965,0.797,25.94
10469,2454,7.0366,11.3078,4.0917,-0.8428,2.3811,1.6006,25.96
10479,2299,9.0261,8.9208,4.5633,-1.056,2.4805,1.8871,25.96
10489,2161,10.3238,6.5529,5.7868,-1.1151,2.5159,1.6523,25.95
10499,2108,10.3477,5.1164,6.1196,-0.9318,2.2617,1.0789,25.94
10509,2096,9.1315,4.537,5.6383,-0.6462,1.9063,0.5185,25.93
10519,2162,7.9727,4.2665,5.6072,-0.2779,1.3065,0.0282,25.95
10529,2158,6.6607,4.4508,5.5857,0.1298,0.393,-0.3693,25.97
10539,2112,5.0757,4.9249,5.0566,0.4983,-0.6678,-0.6019,25.94
10549,2093,3.4836,5.4923,3.9672,0.7218,-1.6494,-0.6592,25.93
10559,2123,2.0925,5.9137,2.6384,0.8124,-2.3875,-0.587,25.96
10569,2046,1.008,6.098,1.4413,0.8855,-2.7883,-0.4517,25.96
10579,1774,0.2945,6.0597,0.4884,0.9952,-2.8517,-0.3392,25.94
10589,2992,-0.3735,6.0908,-0.1772,1.1437,-2.6516,-0.2681,25.94
10599,4095,-0.9553,6.4045,-1.166,1.1644,-2.2156,-0.2406,25.94
10609,4095,-1.4222,6.8139,-1.9968,0.9435,-1.5314,-0.2052,25.94
10619,2851,-1.5323,7.0797,-2.3607,0.5308,-0.5971,-0.1196,25.94
10629,1819,-0.6776,7.1204,-1.8483,0.0861,0.4727,0.0141,25.93
10639,2229,0.5674,6.9504,-1.0008,-0.3216,1.3995,0.0981,25.92
10649,2225,1.7789,6.9432,0.3879,-0.6563,2.0459,0.1532,25.93
10659,2240,2.8395,7.288,2.0303,-0.862,2.2489,0.2409,25.96
10669,2295,3.8451,7.7548,3.3734,-0.9363,1.9585,0.4096,25.94
10679,2296,4.8507,7.92,3.8547,-0.923,1.3217,0.5692,25.94
10689,2345,5.3271,7.695,3.7038,-0.882,0.627,0.6222,25.95
10699,2397,5.217,7.2999,3.1723,-0.7799,0.0757,0.5177,25.95
10703,2415,5.1739,7.1898,3.0765,-0.72,-0.0823,0.4375,25.94
10713,2418,4.7764,7.4005,2.7557,-0.5047,-0.3395,0.1764,25.95
10723,2461,4.2425,8.0756,2.3846,-0.2443,-0.4066,-0.041,25.95
10733,2458,3.6943,8.8226,1.8292,-0.0149,-0.3467,-0.1348,25.94
10743,2515,3.3184,9.3039,1.257,0.1519,-0.2166,-0.1364,25.94
10753,2689,3.1125,9.5265,1.1085,0.2822,-0.0935,-0.0879,25.96
10763,2752,3.0239,9.4212,1.1875,0.3842,-0.0216,-0.0147,25.95
10773,2736,3.146,9.2105,1.4078,0.4596,-0.0624,0.0514,25.95
10783,2783,3.1915,9.098,1.3144,0.4735,-0.1844,0.1058,25.95
10793,2769,3.1508,9.4547,1.2522,0.4527,-0.34,0.2209,25.96
10803,2725,3.3375,9.5936,0.9433,0.3826,-0.4834,0.3813,25.95
10813,2759,3.5362,9.5984,0.5195,0.2089,-0.5492,0.4972,25.96
10823,2779,3.7589,9.7444,0.2562,-0.0325,-0.4812,0.5732,25.97
10833,2704,4.1108,10.1107,0.3759,-0.2385,-0.3064,0.6635,25.96
10843,2703,4.7692,10.5489,0.5531,-0.3355,-0.1039,0.7525,25.96
10853,2630,5.8059,10.9966,1.0606,-0.3158,0.0658,0.8047,25.95
10863,2635,6.8402,11.6095,2.1524,-0.19,0.0895,0.8743,25.95
10873,2559,7.4771,12.1554,3.4309,-0.0008,-0.1215,1.0725,25.95
10883,2455,8.1116,11.5329,4.0773,0.1463,-0.466,1.279,25.97
10893,2384,8.2552,10.4435,4.2856,0.1122,-0.7208,1.3331,25.95
10903,2315,7.9176,9.5074,4.6448,-0.1199,-0.854,1.2873,25.96
10913,2269,7.5298,8.9376,5.1667,-0.4711,-0.8466,1.2372,25.96
10923,2250,7.3717,8.6694,6.1579,-0.7653,-0.7618,1.1855,25.96
10933,2211,7.5226,8.4228,6.8426,-0.9462,-0.5438,1.0664,25.97
10943,2203,7.8961,8.0637,7.2808,-0.9987,-0.0725,0.7285,25.94
10953,2166,8.1451,7.7237,7.4962,-0.8785,0.6555,0.1103,25.95
10963,2177,7.7596,7.4364,7.7021,-0.5907,1.5005,-0.6235,25.96
10973,2129,6.9001,6.9049,7.7979,-0.1887,2.1965,-1.2969,25.95
10983,2105,6.0023,5.9376,7.6207,0.2859,2.5434,-1.8266,25.94
10993,2069,5.4013,4.6783,7.1874,0.8474,2.4088,-2.1965,25.96
11003,1997,5.0853,3.6057,6.45,1.4008,1.765,-2.384,25.95
11013,1983,4.9704,2.909,5.2241,1.7589,0.7799,-2.2729,25.96
11023,1973,4.9081,2.8347,3.5698,1.7323,-0.3086,-1.865,25.95
11033,1939,4.8985,3.2465,1.8172,1.178,-1.3408,-1.2428,25.95
11043,1981,4.7262,4.0893,0.51,0.138,-2.2748,-0.55,25.94
11053,1925,4.4604,5.2768,-0.1317,-1.1077,-3.1173,0.1447,25.97
11063,1895,4.2449,6.6846,-0.0551,-2.2849,-3.783,0.8018,25.95
11073,1901,4.0773,8.2193,0.9577,-3.1581,-4.1544,1.3984,25.95
11083,1882,4.2521,9.268,2.7222,-3.5186,-4.0774,1.8133,25.95
11093,1914,4.6591,9.7995,5.0709,-3.2314,-3.3833,1.8226,25.97
11097,1905,4.8315,9.9168,5.8035,-2.9503,-2.9385,1.6715,25.97
11107,1895,5.2361,9.924,6.6918,-2.0371,-1.5513,0.9233,25.97
11117,1922,4.9871,9.7205,6.4141,-1.0533,-0.0821,-0.1268,25.96
11127,1985,4.1994,9.1985,5.5282,-0.199,1.1407,-1.077,25.96
11137,2002,3.5291,8.3701,4.4676,0.4514,1.9025,-1.7938,25.96
11147,1985,3.0957,7.4172,3.632,0.8601,2.2202,-2.2372,25.95
11157,1971,2.7581,6.5841,3.1005,1.0496,2.2124,-2.3694,25.95
11167,1970,2.5977,5.8682,2.8108,1.0682,1.9803,-2.2047,25.96
11177,1802,2.8156,5.2553,2.3822,0.9633,1.6371,-1.7962,25.96
11187,1567,3.1125,4.8387,2.0207,0.7554,1.2502,-1.2369,25.95
11197,1470,3.6751,4.5179,1.6185,0.4951,0.8226,-0.6422,25.96
11207,1451,4.5442,4.0989,1.0774,0.2118,0.384,-0.1553,25.95
11217,1425,5.3151,3.948,0.5986,-0.0919,-0.012,0.1114,25.96
11227,1423,5.7844,4.2329,0.3783,-0.4242,-0.377,0.1996,25.97
11237,1371,5.8323,4.8123,0.4549,-0.7573,-0.7285,0.1884,25.97
11247,1344,5.4995,5.4516,0.8954,-1.0427,-1.0331,0.1404,25.95
11257,1374,4.8315,6.2991,1.7071,-1.2084,-1.2391,0.1061,25.97
11267,1306,3.9289,7.2688,2.6504,-1.1786,-1.3065,0.149,25.98
11277,959,3.2346,8.1283,3.2178,-0.9976,-1.2337,0.2278,25.97
11287,1387,2.9856,8.5114,3.213,-0.7669,-1.036,0.2457,25.97
11297,4095,2.7509,8.5569,2.7007,-0.5063,-0.6475,0.162,25.96
11307,4095,2.4612,8.3869,2.1261,-0.2998,-0.1228,0.0368,25.96
11317,1794,2.2601,8.2289,1.8531,-0.1037,0.4215,-0.0815,25.96
11327,442,2.162,8.1139,1.8004,0.1079,0.8966,-0.1705,25.96
11337,1200,2.2505,8.0086,1.9417,0.3182,1.2353,-0.2089,25.95
11347,1157,2.5522,7.932,2.0614,0.4767,1.4024,-0.2185,25.95
11357,1104,3.043,7.9511,2.3272,0.5617,1.412,-0.1964,25.96
11367,1087,3.5841,8.102,2.5762,0.6057,1.2833,-0.1551,25.96
11377,1094,4.1922,8.2959,2.6647,0.6281,1.101,-0.1085,25.96
11387,1115,4.9105,8.3414,2.7342,0.6568,0.9132,-0.0874,25.94
11397,1202,5.4324,8.1977,2.6671,0.7093,0.7578,-0.1119,25.97
11407,1203,5.8634,7.908,2.545,0.7829,0.6544,-0.1375,25.96
11417,1232,6.1675,7.5058,2.5618,0.8641,0.5633,-0.133,25.97
11427,1287,6.4141,7.1922,2.5379,0.8676,0.4186,-0.0927,25.96
11437,1408,6.6367,7.2664,2.4852,0.7344,0.194,-0.0354,25.98
11447,1440,6.6439,7.8817,2.3774,0.4647,-0.0943,0.0304,25.97
11457,1487,6.6487,8.7939,2.1811,0.0802,-0.4421,0.0858,25.97
11467,1519,6.5769,9.6103,1.9321,-0.4181,-0.7973,0.0695,25.97
11477,1532,6.0741,10.6734,2.2889,-0.8929,-1.1034,-0.0288,25.97
11487,1626,5.0542,12.0452,3.4189,-1.1618,-1.3443,-0.1154,25.97
11491,1649,4.4484,12.6486,4.0127,-1.1876,-1.4011,-0.113,25.96
11501,1639,3.2226,13.8361,5.636,-1.0419,-1.4176,0.0352,25.97
11511,1691,2.873,13.386,6.5721,-0.7218,-1.2028,0.1937,25.98
11521,1714,3.1675,11.9016,6.5697,-0.4191,-0.6845,0.1039,25.98
11531,1751,3.3782,10.5872,6.2082,-0.3211,0.045,-0.1508,25.96
11541,1821,3.5961,9.5624,6.0118,-0.4639,0.8319,-0.3738,25.96
11551,1843,4.0007,8.8202,6.3063,-0.7123,1.4634,-0.4954,25.97
11561,1886,4.4365,8.1666,6.9719,-0.9545,1.8277,-0.5113,25.97
11571,1911,4.8076,7.3454,7.5824,-1.1447,1.9209,-0.4599,25.97
11581,1897,4.786,6.3925,8.1762,-1.2148,1.7323,-0.3595,25.96
11591,1783,4.3311,5.5952,8.2744,-1.0688,1.2593,-0.21,25.98
11601,1802,3.6631,5.1763,7.9248,-0.6947,0.6001,-0.0077,25.97
11611,1763,2.7414,5.1739,6.9408,-0.2635,-0.0354,0.1956,25.97
11621,1741,1.5778,5.4803,5.5737,0.1498,-0.5159,0.3381,25.97
11631,1727,0.5387,5.9903,3.9169,0.4503,-0.7626,0.3858,25.98
11641,1760,-0.1197,6.6583,2.5019,0.5388,-0.6757,0.3603,25.97
11651,1723,-0.2322,7.4436,1.5562,0.4165,-0.2353,0.3115,25.97
11661,1718,0.3112,8.2289,1.0965,0.1069,0.4951,0.2995,25.97
11671,1741,1.3264,9.0214,1.5778,-0.3182,1.3941,0.3645,25.96
11681,1737,2.4301,10.0509,3.6703,-0.7285,2.2308,0.6875,25.95
11691,1770,4.0845,10.4722,7.1515,-0.9491,2.642,1.331,25.97
11701,1770,6.2441,9.3925,9.1219,-0.979,2.5756,1.9899,25.98
11711,1779,7.9823,7.4723,9.098,-1.0003,2.3872,2.3441,25.98
11721,1761,8.9352,5.545,8.3989,-1.0936,2.1671,2.2759,25.97
11731,1777,9.347,4.2808,7.932,-1.1759,1.7728,1.8311,25.96
11741,1796,8.8298,3.7326,7.7668,-1.0864,1.2097,1.173,25.96
11751,1791,7.9559,3.4788,7.7596,-0.655,0.5002,0.4205,25.97
11761,1778,6.3039,3.8451,7.3095,-0.008,-0.2593,-0.3488,25.98
11771,1755,4.3934,4.6878,6.4787,0.5129,-0.9777,-0.9044,25.98
11781,1731,3.067,5.3606,5.2696,0.826,-1.5492,-1.1612,25.97
11791,1731,2.32,5.5952,4.0247,1.0736,-1.9462,-1.2191,26
11801,1846,1.901,5.5737,2.6743,1.3198,-2.1874,-1.2201,25.99
11811,1925,1.5706,5.5019,1.3336,1.4813,-2.2703,-1.2689,25.98
11821,1971,0.9553,5.5162,0.3089,1.4762,-2.2417,-1.3326,25.97
11831,2082,0.3352,5.8035,-0.4717,1.2284,-2.1397,-1.3296,25.96
11841,2128,-0.1317,6.2991,-1.075,0.7155,-1.9729,-1.1956,25.96
11851,2214,-0.4381,6.8019,-1.4605,-0.0005,-1.7147,-0.9443,25.95
11861,1994,-0.6752,7.1754,-1.3862,-0.785,-1.3816,-0.6022,25.96
11871,1991,-0.905,7.3789,-0.6512,-1.5092,-1.0195,-0.1705,25.98
11881,1989,-0.972,7.58,0.9864,-1.9955,-0.7024,0.3048,25.98
11885,2021,-0.8835,7.6591,1.7693,-2.0936,-0.5971,0.5065,25.98
11895,2011,-0.17,7.8626,3.723,-2.0835,-0.3928,1.015,25.98
11905,2082,1.0511,7.9799,5.2936,-1.7909,-0.2854,1.4605,25.99
11915,2134,2.2769,7.6734,5.7581,-1.3651,-0.2513,1.7317,25.98
11925,2109,3.5602,7.0629,5.3415,-0.9281,-0.1684,1.6593,25.97
11935,2112,4.4915,7.0461,4.7812,-0.4844,-0.0043,1.2913,25.98
11945,2161,5.0781,7.4962,4.391,0.004,0.138,0.8292,25.99
11955,1907,5.1475,8.1475,3.7469,0.4341,0.2017,0.4306,25.99
11965,1776,4.8842,8.509,3.2154,0.6923,0.1831,0.1868,25.97
11975,4095,4.5753,8.3079,2.9233,0.7701,0.0965,0.0906,25.97
11985,4095,4.1635,7.7333,2.964,0.6875,-0.0269,0.0767,25.99
11995,4095,3.6057,7.2377,3.4022,0.5276,-0.2156,0.1258,25.99
12005,2075,3.2106,7.1491,3.9552,0.3651,-0.453,0.2537,26
12015,1855,3.0718,7.446,4.1994,0.2084,-0.7088,0.4173,25.97
12025,2172,3.2346,7.9799,3.9792,0.0261,-0.8564,0.5628,25.99
12035,2202,3.6224,8.5928,3.565,-0.1492,-0.7698,0.6358,25.97
12045,2289,4.0677,9.098,3.2298,-0.2217,-0.445,0.5923,25.98
12055,2151,4.6088,9.4978,3.2561,-0.1029,0.0016,0.4338,25.99
12065,2256,5.296,9.8354,3.4644,0.1943,0.4223,0.2204,25.97
12075,2155,5.7964,10.2328,3.9097,0.5662,0.6896,0.1116,25.97
12085,2296,5.849,10.5776,4.2737,0.8575,0.785,0.2832,25.97
12095,2292,6.0478,10.319,4.2784,0.9462,0.7757,0.7384,25.96
12105,2281,6.4236,9.3781,3.9576,0.7149,0.8599,1.243,25.97
12115,2298,6.699,8.3127,4.3167,0.2129,1.1383,1.7094,25.98
12125,2294,6.8043,7.3837,5.5737,-0.2409,1.6089,2.2604,25.98
12135,2330,7.0006,6.1244,7.5417,-0.5433,2.0014,2.6534,25.99
12145,2351,7.4029,4.616,9.5433,-0.7703,2.1336,2.6009,25.98
12155,2395,7.6064,3.3088,11.7603,-0.8873,2.0406,2.0312,25.98
12165,2417,7.0533,2.3008,13.6086,-0.8575,1.7126,1.0216,25.99
12175,2455,6.9145,1.5419,13.9582,-0.6259,1.2817,-0.2502,25.98
12185,2463,6.9312,1.5419,12.4451,-0.1953,0.8895,-1.5026,25.98
12195,2474,6.6415,2.5235,10.1107,0.4008,0.5686,-2.3851,25.97
12205,2497,6.4093,3.9049,7.5681,1.1157,0.0488,-2.7443,26
12215,2507,6.2608,5.0278,4.8459,1.7603,-0.757,-2.7475,25.99
12225,2512,5.7509,5.8993,2.3224,1.9401,-1.6004,-2.5447,25.99
12235,2492,4.944,6.5745,0.6967,1.4807,-2.2732,-2.1535,26
12245,2432,4.197,7.2592,0.2346,0.5113,-2.7395,-1.6033,26.01
12255,2367,3.5291,8.1882,0.9553,-0.7757,-3.0715,-0.9379,25.99
12265,2221,2.976,9.0644,2.9951,-2.0661,-3.3963,-0.1455,26
12275,2151,3.0646,9.0046,5.0829,-2.9961,-3.597,0.574,25.99
12279,2141,3.2609,8.7771,5.9687,-3.2082,-3.573,0.777,26
12289,2099,3.9217,8.1858,8.181,-3.2468,-3.1509,1.0112,25.99
12299,2140,4.5155,7.6088,9.7899,-2.5671,-2.254,0.7903,25.98
12309,2063,4.7908,7.1467,9.7971,-1.3611,-1.0459,0.0925,25.97
12319,1914,4.5921,7.3047,8.5305,0.0013,0.2076,-0.837,25.99
12329,1878,4.4125,7.6279,6.6726,1.1922,1.1527,-1.6835,25.98
12339,1904,4.2066,7.7237,4.7429,1.9569,1.6249,-2.2777,26
12349,1861,4.0079,7.4603,3.2034,2.2831,1.6729,-2.5343,25.99
12359,1849,3.7852,6.9288,2.241,2.327,1.4173,-2.403,25.99
12369,1855,3.5721,6.201,1.415,2.1967,1.0179,-1.9433,25.99
12379,1855,3.565,5.351,0.7661,1.9217,0.5953,-1.2955,25.99
12389,1878,3.6919,4.4221,0.7494,1.5655,0.1324,-0.6483,25.98
12399,1872,3.7685,3.6679,0.7733,1.1826,-0.3413,-0.0975,25.98
12409,1835,4.4915,2.7102,0.2227,0.7498,-0.6414,0.2614,25.99
12419,1842,5.0757,2.2146,-0.1197,0.2212,-0.7392,0.3576,25.99
12429,1793,5.3247,2.3559,-0.146,-0.3608,-0.7799,0.2731,25.99
12439,1747,5.2361,3.0406,0.0263,-0.9433,-0.8455,0.1316,25.99
12449,1707,4.944,3.8978,0.2586,-1.4914,-0.9316,0.0013,25.99
12459,1665,4.209,5.2361,1.0798,-1.9406,-1.011,-0.0509,26
12469,1744,3.4165,7.0198,2.7126,-2.1472,-1.1258,0.0802,26
12479,1745,2.9999,8.8442,4.4748,-2.0296,-1.3027,0.3691,26.01
12489,1803,3.541,9.3398,5.1858,-1.6161,-1.3614,0.5449,26
12499,1820,4.1851,8.928,5.1882,-0.9427,-1.0464,0.3152,25.98
12509,1723,4.2138,8.4779,4.5657,-0.1623,-0.3781,-0.1881,25.97
12519,1530,3.814,8.1451,3.7733,0.5321,0.4325,-0.7008,25.99
12529,1377,3.4046,7.9847,3.2513,1.0704,1.1349,-1.1048,26
12539,1280,3.1053,7.9631,2.9066,1.4186,1.5607,-1.2862,25.99
12549,1259,3.0694,7.9966,2.6408,1.5644,1.6651,-1.2185,25.98
12559,1246,3.3399,8.0278,2.4349,1.5007,1.4807,-0.9369,25.99
12569,1175,3.8475,8.0397,2.2984,1.2931,1.069,-0.5657,26
12579,1187,4.5011,8.0158,2.2577,1.0131,0.5732,-0.2262,25.99
12589,1195,5.102,7.6231,2.1835,0.7695,0.121,-0.0125,25.99
12599,1210,5.4061,7.2616,2.3008,0.6233,-0.1519,0.0536,26
12609,1164,5.5043,6.8833,2.4277,0.5873,-0.2523,0.0402,26
12619,726,5.4899,6.675,2.6624,0.6033,-0.2761,0.0067,25.99
12629,1521,5.3486,6.8043,3.0071,0.6318,-0.3222,-0.0184,25.98
12639,4095,5.1619,7.003,2.9664,0.5748,-0.4493,-0.0093,26
12649,4095,4.8746,7.3885,2.7031,0.3389,-0.6315,0.0048,25.99
12659,1487,4.4796,8.0254,2.4277,-0.0767,-0.8519,0.0253,25.98
12669,527,4.0103,8.8657,2.2721,-0.5817,-1.073,0.0368,26
12673,901,3.8666,9.3302,2.3822,-0.7719,-1.1501,0.036,25.99
12683,1380,3.2872,10.8026,2.8012,-1.1415,-1.2926,0.0386,26
12693,1296,2.5283,12.8186,3.8475,-1.2825,-1.3254,0.1167,25.99
12703,1297,2.2529,13.9175,5.0182,-1.1239,-1.1911,0.307,26
12713,1269,2.5618,13.3644,5.5522,-0.8007,-0.7232,0.3624,25.99
12723,1395,2.9209,12.1865,6.0071,-0.4506,0.0858,0.2041,26
12733,1535,3.0742,11.2504,6.7708,-0.0871,0.9627,0.0197,25.98
12743,1584,3.5386,10.5872,7.1635,0.3019,1.6886,-0.0163,25.99
12753,1641,4.6735,9.9695,7.094,0.6198,2.1541,0.0717,26
12763,1729,6.1124,9.2057,6.9647,0.7775,2.2737,0.1868,26
12773,1793,7.8554,7.4962,7.6255,0.7938,2.0091,0.2177,26
12783,1846,9.1961,2.5929,11.2097,0.8516,1.586,0.3293,26
12793,1956,8.339,3.7278,8.2337,0.4535,0.716,0.1831,26
12803,1949,5.6671,5.5857,3.7469,-0.4607,-0.4495,0.1687,26
12813,1971,2.6049,6.0406,2.0973,-1.4687,-1.5833,0.3222,26.01
12823,2031,1.0439,6.6248,4.051,-1.6782,-2.1445,0.5159,26.02
12833,2059,-0.1221,6.6774,6.6559,-0.9387,-2.1562,0.7186,25.99
12843,2077,0,6.9719,8.0493,0.1047,-1.7483,0.5649,26.02
12853,2160,1.3862,7.6998,8.0038,0.9065,-1.3542,0.0139,25.99
12863,2187,2.9856,8.339,6.3638,1.2588,-1.1988,-0.5665,25.97
12873,2203,4.0294,8.7771,4.6639,1.4714,-1.0136,-0.8244,25.98
12883,2193,4.7788,9.0046,2.739,1.5143,-0.7631,-0.7341,25.99
12893,2260,5.2457,8.9926,0.3089,1.3456,-0.2262,-0.5606,26.01
12903,2263,5.533,8.9543,-0.8356,0.9473,0.5907,-0.3866,26.01
12913,2197,6.0214,8.5042,-0.6943,0.4266,1.4882,-0.1591,26.02
12923,2096,6.3135,7.944,0.2442,0.0093,2.38,0.0685,26.02
12933,2018,6.2249,7.5274,2.0087,-0.2758,3.0715,0.3267,26
12943,1979,5.6575,7.2975,4.4915,-0.4863,3.2178,0.5569,26.02
12953,1899,4.7405,7.5154,6.6822,-0.6241,2.6945,0.8215,26.01
12963,1871,4.1803,7.8721,7.2089,-0.6582,1.7536,0.9582,26
12973,1859,3.96,6.7971,6.5841,-0.5305,0.8583,0.647,25.99
12983,1841,3.7278,5.7269,6.3805,-0.4261,0.0885,0.1809,26.02
12993,1861,3.0861,5.8969,5.8754,-0.2342,-0.6448,-0.2044,26.01
13003,1936,1.7957,6.2608,4.4987,-0.0104,-1.2057,-0.4309,26.02
13013,1994,0.4094,6.3782,2.7557,0.1412,-1.4333,-0.4199,26.02
13023,2000,-0.182,6.7181,1.5754,0.2683,-1.3411,-0.2579,26.02
13033,2058,1.8411,7.0222,1.9704,0.4458,-1.077,-0.3067,26.02
13043,2069,2.7438,7.6806,2.9042,0.6233,-0.886,-0.5428,26
13053,2075,2.7821,7.8314,3.6823,0.7003,-0.9427,-0.6366,26.01
13063,2128,2.6887,7.7692,4.0677,0.7613,-1.145,-0.6043,26.02
13067,2161,2.624,7.6974,3.9217,0.7837,-1.2271,-0.5732,26.01
13077,2165,2.5594,7.6184,2.909,0.8154,-1.4429,-0.4647,25.99
13087,2176,2.5833,7.671,1.9154,0.8434,-1.5436,-0.3888,25.97
13097,2176,2.3583,7.5154,1.0846,0.9105,-1.4706,-0.3866,25.99
13107,2224,2.2003,7.3143,0.4836,0.9838,-1.3019,-0.4349,26
13117,2259,2.0925,7.1898,-0.0168,1.0389,-1.0906,-0.5462,26.02
13127,2322,1.5874,6.9168,-0.3496,0.9998,-0.8607,-0.6678,26.01
13137,2432,1.4772,6.7181,-0.5171,0.943,-0.6403,-0.7733,26.01
13147,2483,1.798,6.4979,-0.3352,0.9012,-0.4381,-0.9116,26
13157,2605,2.0159,7.3574,0.1389,0.8271,-0.4386,-0.9635,26.01
13167,2559,1.9034,8.3941,-0.012,0.7554,-0.5431,-0.8468,26.02
13177,2523,1.6568,9.0884,-0.395,0.5764,-0.5614,-0.6542,26.01
13187,2375,1.6879,9.6582,-0.2011,0.3925,-0.4354,-0.5002,26
13197,2268,2.0446,9.8785,0.1796,0.2502,-0.287,-0.388,26.02
13207,2213,2.3176,9.2751,0.4286,0.1817,-0.1911,-0.3829,26.01
13217,2288,2.4062,8.3199,0.4597,0.1561,-0.0938,-0.4775,26.02
13227,2322,2.1715,7.8961,0.8284,0.1282,0.0051,-0.615,26.01
13237,2316,1.3886,8.6119,1.1564,0.1697,0.041,-0.6432,26.01
13247,2343,0.7901,9.8641,1.2881,0.2848,0.0229,-0.5614,26.02
13257,2331,1.2498,11.0875,1.7645,0.473,0.0088,-0.474,26.01
13267,2320,1.8124,11.6574,1.9704,0.6678,-0.0677,-0.3661,25.99
13277,2093,2.3272,11.5161,1.1085,0.8018,-0.1649,-0.2294,26.02
13287,2035,2.3439,11.2312,-0.0239,0.8556,-0.1402,-0.1156,26
13297,4095,2.9999,10.4746,-0.2107,0.9377,-0.0525,-0.073,26.01
13307,4095,3.0981,10.3645,0.5794,1.1583,0.0128,-0.1244,26.01
13317,4095,2.5809,10.6853,0.9457,1.4266,-0.0104,-0.0666,25.99
13327,1966,2.4972,11.3677,1.1827,1.6649,-0.2076,0.0823,25.99
13337,1982,2.897,12.1314,0.9792,1.8623,-0.5934,0.2475,25.99
13347,2167,3.1173,11.9854,0.577,1.9588,-0.821,0.3941,26.01
13357,2085,2.9473,12.2272,0.5339,2.0776,-0.9185,0.4879,26.01
13367,2047,3.7565,12.1027,0.7111,1.8191,-1.1119,0.4858,26
13377,1987,4.2569,12.1147,1.0151,1.388,-1.0573,0.3805,26.02
13387,1945,4.2186,11.4299,1.9106,0.9737,-0.9252,0.1575,26.02
13397,1906,3.3088,9.9311,3.158,0.9188,-0.753,-0.1519,26.03
13407,1887,2.909,9.5193,3.2537,0.8839,-0.6763,-0.3347,26.02
13417,1869,2.7773,9.1267,3.316,0.8684,-0.8255,-0.6496,26.01
13427,1835,3.541,8.9304,2.988,0.7072,-0.8239,-0.8929,26
13437,1854,3.8882,8.916,2.818,0.6003,-0.5678,-1.0693,26.02
13447,1850,3.893,9.0166,2.6552,0.6211,-0.1871,-1.1271,26.01
13457,1847,3.6679,8.7987,2.6001,0.7069,0.1849,-0.9777,26.01
13461,1857,3.4764,8.667,2.3774,0.7637,0.2899,-0.8721,26.02
13471,1831,2.9473,8.4156,1.6855,0.9108,0.4503,-0.6307,26.03
13481,1879,2.8012,8.3725,1.6831,1.0134,0.4154,-0.4341,26.02
13491,1923,2.873,8.7197,1.6185,1.0371,0.2651,-0.2483,26
13501,1968,2.9616,9.3422,1.6065,0.9081,0.1362,-0.0602,26
13511,1995,2.9975,9.8354,1.4892,0.5564,0.0786,0.1375,26
13521,1968,2.9185,10.0317,0.9481,0.0869,0.0967,0.316,26.02
13531,1968,2.7126,9.9527,0.2562,-0.4612,0.0221,0.3698,26.03
13541,2055,2.3391,9.9838,0.0958,-1.0214,-0.137,0.3592,26.02
13551,2030,1.6137,10.2137,-0.5866,-1.4322,-0.1927,0.2742,26.01
13561,1963,0.589,10.4507,-0.4477,-1.4504,-0.0887,0.077,26.02
13571,1913,0.103,10.4315,-0.644,-1.153,0.0608,-0.1577,26.03
13581,1802,0.2993,10.082,-0.5866,-0.7738,0.2904,-0.3283,26.03
13591,1659,0.395,9.2919,-1.0247,-0.5119,0.5902,-0.3035,26.03
13601,1520,1.3144,8.7628,-0.8643,-0.2611,0.805,-0.295,26.02
13611,1531,1.3479,8.5593,-0.4286,0.0176,0.8911,-0.2979,26.03
13621,1498,0.5171,8.43,-0.6057,0.2102,1.0296,-0.1593,26.02
13631,1438,0.4621,8.1738,-0.735,0.4165,1.3099,-0.0099,26.02
13641,1439,0.5387,7.7357,-0.7398,0.5995,1.6601,0.1593,26.02
13651,1407,0.7063,7.343,-0.5674,0.684,2.0083,0.3754,26.03
13661,1408,1.2953,6.9168,-0.3496,0.6907,2.2804,0.5817,26.03
13671,1382,1.6233,6.6367,-0.6321,0.5502,2.4797,0.6654,26.02
13681,1357,1.221,7.2042,-0.8164,0.4088,2.7147,0.6518,26.01
13691,1408,0.917,7.8314,-0.3352,0.2817,3.0054,0.6094,26.01
13701,1393,0.8068,8.339,0.1604,0.1471,3.3233,0.5934,26.02
13711,1331,1.1349,8.6718,0.656,-0.0346,3.5762,0.6422,26.02
13721,1360,1.3384,8.8825,0.8859,-0.206,3.6969,0.6848,26.02
13731,1321,1.8124,8.7891,1.221,-0.3275,3.678,0.7,26.01
13741,1298,2.4493,8.6287,1.1588,-0.47,3.5599,0.737,26.03
13751,1328,2.8491,8.6287,1.0702,-0.5502,3.395,0.8194,26.01
13761,1379,3.2058,8.6479,1.0032,-0.5694,3.2346,0.8588,26.02
13771,1321,3.5099,8.7221,1.0199,-0.6102,3.1022,0.8868,26.02
13781,1340,3.9409,8.734,1.0271,-0.5953,2.9814,0.9086,26.03
13791,1507,4.6735,8.7412,1.5203,-0.5196,2.8322,0.8727,26.02
13801,1567,5.3223,8.8705,1.8268,-0.3621,2.6284,0.7397,26.01
13811,1669,5.3199,9.0022,1.7621,-0.2164,2.3864,0.6073,26.02
13821,1695,4.6974,8.9543,1.3623,-0.1215,2.1594,0.5915,26.02
13831,1707,4.1276,8.9184,1.2402,-0.0493,1.9915,0.611,26.02
13841,1601,3.7876,8.8131,1.2163,0.0394,1.8567,0.6299,26.02
13851,1447,3.7661,8.6479,1.324,0.1887,1.7523,0.5788,26.02
13855,1423,3.6799,8.5712,1.3527,0.2569,1.7192,0.5393,26.02
13865,1411,3.4333,8.2672,1.3455,0.4357,1.6358,0.4199,26.03
13875,1463,3.0454,8.3486,1.2306,0.5401,1.5306,0.3139,26.04
13885,1488,2.9209,8.758,1.2354,0.6297,1.4027,0.3357,26.04
13895,1573,2.909,9.0573,1.1803,0.6904,1.2697,0.3653,26.04
13905,1598,2.7414,9.1554,1.0726,0.6739,1.2356,0.3557,26.03
13915,1649,2.5857,9.1794,0.8595,0.6294,1.2934,0.3195,26.03
13925,1675,2.15,9.244,0.6321,0.6041,1.4093,0.2481,26.03
13935,1631,1.9106,9.1578,0.2131,0.57,1.5351,0.1569,26.03
13945,1379,1.6688,9.1674,-0.1724,0.4818,1.5447,0.0898,26.04
13955,2962,1.5371,9.1698,-0.4214,0.3744,1.4597,0.0797,26.03
13965,4095,1.4724,9.2177,-0.4381,0.3115,1.3635,0.089,26.05
13975,4095,1.494,9.414,-0.3879,0.3365,1.3296,0.1061,26.04
13985,1443,1.5083,9.7659,-0.3687,0.4602,1.3936,0.1322,26.02
13995,1501,1.7549,10.1514,-0.34,0.6598,1.514,0.1705,26.02
14005,1968,2.1883,10.671,-0.4118,0.8244,1.6089,0.2169,26.02
14015,2031,2.6935,11.3365,-0.2634,0.8564,1.6507,0.2891,26.03
14025,1612,3.1603,11.7196,0.0694,0.7016,1.5839,0.385,26.03
14035,1723,3.4213,11.6143,0.4549,0.304,1.4178,0.4922,26.03
14045,1770,3.5147,11.3964,1.4485,-0.146,1.2526,0.5849,26.03
14055,1857,3.5698,11.2863,1.8866,-0.607,1.1122,0.5993,26.04
14065,1954,3.5171,11.1091,2.4828,-1.1322,0.9462,0.5833,26.04
14075,2000,3.2417,10.9846,3.1747,-1.4528,0.7221,0.5926,26.02
14085,2103,3.1987,11.1642,3.3112,-1.615,0.6006,0.6827,26.04
14095,2240,3.6559,10.635,3.7948,-1.591,0.6462,0.7653,26.03
14105,2255,3.4884,10.0437,4.3622,-1.3811,0.814,0.7623,26.02
14115,2365,3.2226,9.2249,5.284,-0.9534,0.9832,0.6744,26.04
14125,2199,2.7725,8.1882,5.9185,-0.3805,1.0624,0.5481,26.05
14135,2288,2.083,7.0988,6.213,0.243,1.0158,0.4245,26.04
14145,2291,1.2929,6.3015,6.1172,0.8378,0.8993,0.2931,26.04
14155,2351,0.6584,6.177,5.1236,1.1946,0.9358,0.1519,26.04
14165,2414,0.1101,6.2321,4.6304,1.441,1.2849,-0.008,26.04
14175,2466,-0.2418,6.529,4.1515,1.7475,1.8778,-0.2046,26.05
14185,2448,-0.3759,7.3167,3.0981,2.0947,2.6132,-0.3363,26.04
14195,2503,-0.0215,8.6598,1.7645,2.1477,3.4304,-0.328,26.04
14205,2554,0.7925,10.1442,1.2522,1.8359,4.1816,-0.1124,26.05
14215,2603,2.8036,10.5536,1.3886,1.3478,4.7049,0.1516,26.05
14225,2581,5.5545,10.0628,1.8268,0.8066,4.7929,0.1748,26.05
14235,2551,7.0892,9.8881,2.7222,0.3528,4.4102,0.0224,26.04
14245,2529,7.5729,10.252,4.0031,0.0624,3.6196,-0.0474,26.04
14249,2507,7.5705,10.3477,4.4676,-0.0274,3.2186,-0.0253,26.02
14259,2435,7.1778,10.1083,5.2313,-0.1721,2.2108,0.1162,26.03
14269,2412,6.4715,9.6534,5.6767,-0.1372,1.3414,0.2217,26.04
14279,2375,5.3199,9.3757,5.8059,0.0821,0.6547,0.1958,26.03
14289,2288,3.8786,9.2201,5.2553,0.4213,0.174,0.0975,26.03
14299,2315,2.466,9.1722,4.2377,0.817,-0.0749,-0.0312,26.04
14309,2298,1.2163,9.086,2.9616,1.246,-0.1108,-0.158,26.04
14319,2282,0.2059,8.8753,1.5538,1.6622,0.0195,-0.2537,26.04
14329,2287,-0.3017,8.2408,0.0335,2.023,0.3,-0.3248,26.04
14339,2323,-0.8523,7.4627,-1.0726,2.2335,0.6965,-0.4479,26.06
14349,2400,-1.6185,7.0581,-2.6815,2.1258,1.0773,-0.5047,26.06
14359,2390,-1.8268,6.45,-3.6895,1.5561,1.4365,-0.6059,26.03
14369,2400,-1.5371,6.0047,-3.4237,0.8809,1.9049,-0.5793,26.05
14379,2423,-1.0774,5.9759,-2.8323,0.2566,2.3614,-0.3419,26.05
14389,2413,0.1317,5.9783,-2.0901,-0.3523,2.7041,0.0322,26.05
14399,2423,1.7933,6.1339,-1.0247,-0.9334,2.7952,0.3288,26.03
14409,2451,3.237,6.6702,0.2346,-1.4256,2.5834,0.4727,26.03
14419,2498,4.1539,7.6974,1.8914,-1.7035,2.1216,0.5247,26.04
14429,2471,4.3742,9.2416,3.3232,-1.6824,1.4709,0.6155,26.04
14439,2465,4.4867,10.0628,3.9385,-1.4149,0.7709,0.7464,26.04
14449,2559,4.5729,9.9096,3.7876,-0.9345,0.2022,0.7192,26.04
14459,2603,4.2473,9.3541,3.1723,-0.3288,-0.1394,0.4639,26.03
14469,2663,3.5243,9.0261,2.5426,0.3355,-0.3126,0.1029,26.04
14479,2798,2.6264,8.8562,1.5371,0.918,-0.3744,-0.2108,26.05
14489,2738,1.7502,8.5617,0.0144,1.279,-0.3379,-0.3792,26.04
14499,2662,0.8284,8.3989,-1.3384,1.3832,-0.2217,-0.3653,26.05
14509,2469,0.2682,8.0254,-2.5019,1.1775,-0.0546,-0.1687,26.05
14519,2441,0.1676,7.5369,-2.6959,0.7386,0.1335,0.0456,26.04
14529,2474,0.3519,7.4077,-2.1237,0.2537,0.292,0.2278,26.03
14539,2559,0.5842,7.7788,-1.2713,-0.1735,0.3603,0.3736,26.03
14549,2654,0.9744,8.4348,-0.1844,-0.4551,0.3059,0.4783,26.03
14559,2695,1.2953,9.1267,0.7446,-0.5209,0.1705,0.5231,26.05
14569,2718,1.5203,9.7133,1.2354,-0.36,0.0741,0.4943,26.06
14579,2761,1.6281,10.1035,1.154,-0.0432,0.0629,0.3698,26.05
14589,2817,1.731,10.6183,0.8356,0.3,0.0837,0.2542,26.04
14599,2479,1.5467,10.9511,0.0599,0.5287,0.1167,0.227,26.03
14609,2832,1.482,11.0253,-0.7566,0.5548,0.2356,0.2798,26.04
14619,4095,1.6209,10.9415,-1.1133,0.4639,0.4128,0.3568,26.04
14629,4095,1.9992,10.9176,-1.2474,0.3456,0.5596,0.4487,26.04
14639,4095,2.5786,10.9439,-1.1827,0.2374,0.5841,0.4716,26.05
14643,3989,2.8683,10.9654,-1.2043,0.207,0.562,0.4658,26.03
14653,2398,3.5793,11.1402,-1.2019,0.1689,0.4594,0.458,26.04
14663,2601,4.1779,11.5281,-1.1612,0.1855,0.3373,0.5433,26.04
14673,2583,4.5633,11.9471,-0.6752,0.234,0.1713,0.7685,26.05
14683,2512,4.8195,12.1147,0.0192,0.2611,-0.0829,1.0539,26.06
14693,2493,4.9273,12.1697,0.7446,0.2078,-0.4359,1.2428,26.05
14703,2514,4.7764,12.1793,1.4437,0.0346,-0.8156,1.2433,26.04
14713,2519,4.4173,12.1554,2.1189,-0.1335,-1.0198,1.1548,26.05
14723,2458,3.9121,11.9519,2.9329,-0.2116,-1.0331,0.9995,26.05
14733,2451,3.4357,11.8154,3.4189,-0.2691,-1.0072,0.7133,26.04
14743,2448,3.1292,11.9926,3.5267,-0.3467,-0.8926,0.3818,26.04
14753,2438,2.9185,12.0692,3.5793,-0.4647,-0.5068,0.0517,26.06
14763,2434,2.7509,11.8848,3.711,-0.5742,0.1319,-0.2462,26.05
14773,2417,2.6384,11.2456,4.0438,-0.5982,0.8151,-0.5215,26.06
14783,2384,2.7797,10.477,4.2593,-0.4437,1.3022,-0.781,26.06
14793,2395,3.0789,9.505,3.9696,-0.1186,1.5103,-1.0088,26.04
14803,2381,3.3471,8.442,3.4907,0.2737,1.4605,-1.1839,26.04
14813,2367,3.5865,7.3191,2.9688,0.6273,1.1759,-1.2537,26.04
14823,2351,3.7254,6.2656,2.2003,0.8167,0.7253,-1.1935,26.05
14833,2326,3.6512,5.521,1.6664,0.7064,0.2249,-1.0861,26.04
14843,2327,3.1939,5.1284,1.4605,0.4828,-0.323,-0.8474,26.03
14853,2315,2.7629,5.2194,1.324,0.1945,-0.9302,-0.4367,26.06
14863,2273,2.2936,5.7078,1.3623,-0.1628,-1.5218,0.1479,26.05
14873,2253,2.2841,6.1603,1.4461,-0.5761,-1.9846,0.7192,26.06
14883,2230,2.3559,6.9528,1.8028,-1.0134,-2.3118,1.1005,26.07
14893,2166,2.1715,8.0206,2.3056,-1.3576,-2.4347,1.2899,26.05
14903,2047,1.7741,9.1506,2.7533,-1.5655,-2.2551,1.3241,26.05
14913,1957,1.4653,9.8545,2.976,-1.6182,-1.796,1.1543,26.07
14923,1918,1.1396,10.5872,3.0287,-1.4901,-1.0549,0.7823,26.04
14933,1840,0.9074,11.1929,2.9904,-1.181,-0.17,0.2894,26.06
14943,1797,0.7805,11.3892,2.7007,-0.668,0.7123,-0.2324,26.04
14953,1741,0.5387,11.0253,2.4277,-0.041,1.4759,-0.6483,26.05
14963,1712,0.838,9.9479,1.9824,0.4871,1.9979,-1.0011,26.05
14973,1639,1.391,8.8753,1.7382,0.8343,2.274,-1.2598,26.03
14983,1558,1.8483,8.078,1.549,0.9822,2.3414,-1.3174,26.04
14993,1513,2.2218,7.4005,1.482,0.9345,2.2079,-1.2001,26.06
15003,1473,2.7246,6.8211,1.1301,0.7626,1.9412,-0.9678,26.05
15013,1392,3.2896,6.347,0.8739,0.5361,1.6622,-0.6909,26.05
15023,1297,3.8331,5.9879,0.7685,0.2825,1.3019,-0.3968,26.05
15033,1253,4.209,6.1603,0.5746,0.0437,0.9462,-0.0853,26.06
15037,1236,4.3407,6.2991,0.4788,-0.0789,0.7706,0.0685,26.05
15047,1133,4.4724,6.6702,0.4836,-0.2918,0.4477,0.2944,26.04
15057,1022,4.2617,7.2544,0.5531,-0.4703,0.1074,0.4088,26.05
15067,989,3.7613,7.9272,0.6871,-0.5436,-0.1188,0.4186,26.04
15077,929,3.1675,8.4779,0.9122,-0.4932,-0.1727,0.3597,26.06
15087,895,2.5762,8.7939,1.1133,-0.3277,-0.0522,0.2539,26.05
15097,926,1.9944,8.7867,0.9912,-0.1226,0.1775,0.1348,26.06
15107,976,1.6257,8.6503,0.8021,0.0258,0.4066,0.032,26.06
15117,993,1.3695,8.6335,0.6201,0.1482,0.6035,-0.0482,26.07
15127,1040,1.324,8.4467,0.4214,0.2566,0.76,-0.0959,26.06
15137,967,1.3815,8.3031,0.1365,0.3341,0.9097,-0.1223,26.05
15147,898,1.6281,7.9942,-0.0144,0.3717,1.0536,-0.1308,26.04
15157,693,1.7933,7.8243,-0.0982,0.3563,1.165,-0.1439,26.06
15167,578,1.9249,7.7213,-0.1867,0.2862,1.2212,-0.1127,26.06
15177,597,2.0542,7.7428,-0.1365,0.1974,1.2129,-0.064,26.06
15187,625,2.3104,7.8314,0,0.1316,1.1359,-0.0205,26.07
15197,655,2.5283,8.0254,0.1532,0.0997,1.0496,-0.0123,26.04
15207,678,2.6911,8.4563,0.3136,0.109,0.9641,-0.0517,26.04
15217,720,2.6384,8.9687,0.3376,0.1527,0.9116,-0.0781,26.07
15227,755,2.6528,9.3661,0.5914,0.2348,0.8918,-0.0725,26.07
15237,766,2.7246,9.6055,0.7685,0.3587,0.8599,-0.0352,26.08
15247,558,2.8252,9.5936,0.7805,0.5063,0.7874,0.0389,26.07
15257,694,2.8826,9.481,0.5818,0.6467,0.6568,0.1103,26.07
15267,3235,2.9736,9.3685,0.407,0.6686,0.4818,0.1676,26.07
15277,4095,2.988,9.6558,0.4884,0.6011,0.2785,0.1396,26.06
15287,1602,2.7701,10.3142,0.4238,0.5076,0.1242,0.0469,26.05
15297,58,2.545,11.1546,0.2993,0.381,-0.0032,-0.0687,26.04
15307,960,2.1835,12.1338,0.091,0.259,-0.1255,-0.1396,26.05
15317,990,2.0949,12.809,0.2514,0.2494,-0.234,-0.1655,26.06
15327,950,2.1835,12.8138,0.261,0.397,-0.344,-0.2443,26.06
15337,970,2.1189,12.8736,-0.2179,0.6177,-0.3256,-0.336,26.05
15347,1103,1.8244,12.9407,0.0599,0.7839,-0.0394,-0.2609,26.07
15357,1120,1.6735,12.8545,0.2753,0.9206,0.2132,-0.0613,26.06
15367,1141,2.2027,12.5791,0.5363,0.8575,0.3309,0.1972,26.06
15377,1263,3.2633,12.1841,1.1205,0.6014,0.2686,0.3035,26.05
15387,1345,4.0869,12.1602,1.7478,0.2142,0.0629,0.2995,26.06
15397,1350,4.6471,12.1985,2.3703,-0.2078,-0.2217,0.287,26.04
15407,1506,4.8411,12.1386,3.2298,-0.5231,-0.4866,0.296,26.05
15417,1573,4.9943,11.5855,4.1276,-0.7003,-0.6552,0.2939,26.07
15427,1637,4.8076,10.6159,4.7357,-0.8071,-0.6925,0.2102,26.07
15431,1657,4.6424,10.1801,4.8578,-0.8458,-0.6656,0.1625,26.06
15441,1702,3.6224,8.8562,5.047,-0.971,-0.5646,0.0528,26.07
15451,1763,2.2889,7.5944,5.4181,-1.0696,-0.5436,0.0179,26.06
15461,1810,1.233,6.6152,5.7341,-1.0155,-0.587,0.0786,26.07
15471,1882,0.1245,5.7006,6.5888,-0.7477,-0.643,0.1956,26.07
15481,1935,-1.245,5.1667,7.1228,-0.2361,-0.7298,0.3051,26.06
15491,1905,-2.1644,5.4684,6.3375,0.3158,-0.6987,0.3675,26.05
15501,1959,-2.3607,6.3949,4.118,0.667,-0.3512,0.3339,26.04
15511,1994,-2.1356,7.8889,1.1588,0.7083,0.3789,0.2388,26.06
15521,2043,-1.6592,9.8904,-1.2905,0.5121,1.4027,0.1932,26.06
15531,2063,-0.498,11.5975,-2.6432,0.2689,2.4099,0.3163,26.06
15541,2042,1.7573,12.4235,-2.4134,0.1077,3.112,0.5356,26.05
15551,1973,4.4939,12.2032,-1.3168,-0.1684,3.4981,0.6376,26.05
15561,1920,6.7277,11.2863,0.8954,-0.5617,3.6401,0.6904,26.07
15571,1883,8.7197,9.6582,4.4556,-0.7871,3.3502,0.6142,26.07
15581,1846,9.8521,8.2624,6.7229,-0.7639,2.5149,0.3317,26.07
15591,1830,9.4571,7.6614,7.434,-0.7163,1.4861,0.0218,26.06
15601,1807,8.0804,7.3239,7.1539,-0.6515,0.3805,-0.1873,26.07
15611,1839,6.3446,7.4364,6.1794,-0.4866,-0.7703,-0.3291,26.06
15621,1791,4.312,7.7572,4.8123,-0.1911,-1.8229,-0.3898,26.07
15631,1830,2.3367,8.09,3.5745,0.2345,-2.5844,-0.3688,26.06
15641,1834,0.7709,8.2552,2.1955,0.7802,-2.9274,-0.3272,26.07
15651,1884,-0.2825,7.9511,0.7398,1.3579,-2.8077,-0.3467,26.07
15661,1937,-0.9912,7.3885,-1.0032,1.8327,-2.3177,-0.4738,26.07
15671,2001,-1.391,6.5481,-2.7773,2.039,-1.5972,-0.632,26.04
15681,2066,-2.4684,5.9999,-3.6152,1.8647,-0.8833,-0.7437,26.06
15691,2119,-3.0143,5.624,-3.8164,1.3406,-0.4016,-0.7709,26.06
15701,2192,-2.9281,5.8419,-3.7781,0.6483,0.0195,-0.6952,26.07
15711,2233,-2.3176,6.1411,-3.1556,-0.0378,0.4365,-0.4189,26.07
15721,2302,-1.3144,6.4165,-2.4493,-0.6968,0.8103,-0.0552,26.06
15731,2374,0.1676,6.5146,-1.221,-1.262,1.1175,0.2457,26.07
15741,2495,1.6161,6.7469,0.3208,-1.6108,1.2486,0.3901,26.07
15751,2609,2.6839,7.264,1.7166,-1.679,1.157,0.4178,26.07
15761,2755,3.2465,8.1523,2.6169,-1.4927,0.8183,0.4357,26.07
15771,2787,3.5817,8.8274,2.8874,-1.1644,0.3144,0.4647,26.06
15781,2910,3.5171,9.1004,2.5379,-0.7722,-0.2057,0.4359,26.08
15791,2960,3.1292,9.086,1.9561,-0.3632,-0.6065,0.3203,26.08
15801,2934,2.6145,9.1195,1.4413,0.0909,-0.8583,0.1255,26.08
15811,2835,1.9106,9.2895,0.4405,0.5281,-0.9313,-0.0885,26.07
15821,2654,1.0702,9.5553,-0.723,0.8631,-0.8191,-0.2262,26.08
15825,2637,0.7973,9.5864,-1.2019,0.9534,-0.7381,-0.2518,26.07
15835,2611,0.237,9.5505,-2.0662,1.0307,-0.478,-0.2542,26.07
15845,2608,-0.0575,9.1219,-2.3104,0.8743,-0.1801,-0.1529,26.07
15855,2655,-0.012,8.5712,-1.7621,0.5561,0.0831,-0.0085,26.07
15865,2640,0.2849,8.6072,-0.7494,0.2108,0.2014,0.1871,26.09
15875,2553,0.668,8.825,-0.0599,-0.0903,0.0909,0.4738,26.07
15885,2531,0.8715,9.3063,0.0383,-0.3914,-0.1466,0.7861,26.08
15895,2559,1.2282,10.0796,-0.0168,-0.6422,-0.4143,1.1122,26.09
15905,2498,1.64,11.0325,-0.3472,-0.8127,-0.6003,1.3763,26.06
15915,2139,2.0231,12.1386,-0.759,-0.8505,-0.6214,1.4775,26.04
15925,3578,2.5498,12.967,-0.9505,-0.6947,-0.3976,1.3957,26.05
15935,4095,3.134,13.5895,-0.7709,-0.3325,0.0048,1.1261,26.06
15945,4095,3.8499,13.9151,-0.1437,0.2044,0.3797,0.744,26.09
15955,3349,4.5442,13.9199,0.4693,0.8855,0.5961,0.5015,26.08
15965,2032,4.9297,13.6254,0.9361,1.5154,0.6121,0.5239,26.07
15975,2288,5.3391,13.0149,1.3695,1.9574,0.4679,0.7173,26.06
15985,2221,5.8849,12.1625,2.071,2.0893,0.2332,0.8926,26.09
15995,2138,6.1363,12.0069,2.3894,1.9172,-0.222,0.9084,26.07
16005,2055,6.5122,11.8609,2.4349,1.3488,-0.6134,0.9177,26.07
16015,1818,6.4021,11.3437,3.0718,0.3656,-0.7975,0.818,26.07
16025,1686,5.5833,12.1266,2.3631,-0.8727,-0.6731,0.6257,26.07
16035,1577,5.2361,9.7995,3.3878,-2.4344,-0.1785,0.5532,26.07
16045,1488,5.0566,7.8817,5.8059,-2.6814,0.837,0.2204,26.07
16055,1412,4.6112,8.2384,6.8522,-2.0203,1.8991,-0.1745,26.07
16065,1392,4.6926,8.4707,6.6607,-1.2063,2.3523,-0.7061,26.07
16075,1357,4.9919,8.1977,5.7365,-0.2137,2.1069,-1.3283,26.07
16085,1345,5.0422,7.4627,4.604,0.9326,1.4437,-1.7696,26.06
16095,1318,5.0685,6.3398,3.4692,1.7824,0.5985,-1.8903,26.06
16105,1287,5.2026,5.4085,1.8483,2.0011,-0.2766,-1.7832,26.08
16115,1281,4.5873,4.8363,0.6488,1.595,-1.108,-1.4925,26.06
16125,1282,4.0342,4.8794,-0.1006,0.8905,-1.8463,-0.8974,26.07
16135,1251,4.1635,5.2481,-0.3041,0.0991,-2.391,-0.0698,26.08
16145,1260,4.5394,6.0406,0.3711,-0.7216,-2.7925,0.7197,26.07
16155,1247,4.6017,7.1874,1.5634,-1.4416,-3.1744,1.2561,26.07
16165,1220,4.2497,8.5736,2.6791,-1.9319,-3.4075,1.5545,26.06
16175,1216,3.7254,9.5696,3.5051,-2.1685,-3.3073,1.6118,26.07
16185,1215,3.2968,9.9647,4.0175,-2.1634,-2.792,1.3374,26.08
16195,1165,2.964,10.1801,4.051,-1.9172,-1.9889,0.7528,26.09
16205,1105,2.3487,10.5201,3.3471,-1.5196,-1.0802,0.0549,26.07
16215,1017,1.3982,10.3837,2.4565,-0.9982,-0.2585,-0.5161,26.09
16219,997,1.1468,10.2017,2.2194,-0.7663,0.02,-0.6947,26.09
16229,896,0.8404,9.4403,1.64,-0.202,0.567,-1.0469,26.09
16239,865,0.9433,8.4803,1.2977,0.2097,0.8639,-1.3153,26.08
16249,826,1.3168,7.6591,1.0774,0.4533,0.923,-1.4951,26.07
16259,825,1.7214,6.8761,0.9816,0.5641,0.8311,-1.5703,26.08
16269,847,2.0806,6.3949,0.9122,0.6046,0.6352,-1.4975,26.07
16279,880,2.3966,6.0741,0.7374,0.5844,0.3776,-1.2726,26.08
16289,943,2.7821,5.8897,0.2849,0.5201,0.1077,-0.9537,26.08
16299,961,3.0526,5.8251,-0.1413,0.3917,-0.1199,-0.5708,26.08
16309,1018,3.2848,5.8347,-0.4166,0.1815,-0.2992,-0.2022,26.07
16319,1098,3.4165,6.0669,-0.5243,-0.0797,-0.4077,0.1252,26.07
16329,1168,3.2298,6.3853,-0.2849,-0.3789,-0.5241,0.3456,26.07
16339,1159,2.7294,6.9743,0.1053,-0.6225,-0.6134,0.4426,26.07
16349,1209,2.1907,7.5633,0.4549,-0.741,-0.5907,0.4546,26.07
16359,1234,1.7765,8.0493,0.6416,-0.7368,-0.4239,0.3802,26.07
16369,1261,1.4054,8.3462,0.4836,-0.6651,-0.129,0.2372,26.07
16379,1258,1.0558,8.4276,0.2251,-0.582,0.2638,0.1005,26.09
16389,1273,0.8404,8.4611,0.1149,-0.4466,0.7075,-0.0157,26.09
16399,1311,0.9266,8.2432,0.1341,-0.2571,1.1397,-0.1207,26.08
16409,1479,1.0199,8.0493,0.0814,-0.0424,1.4981,-0.2241,26.08
16419,1518,1.2713,7.9248,0.0694,0.1569,1.7293,-0.2971,26.08
16429,1641,1.6448,7.8913,0.0838,0.3062,1.7773,-0.3187,26.08
16439,1709,2.0901,7.908,0.0455,0.3938,1.6385,-0.2886,26.09
16449,1745,2.4852,8.0637,-0.0766,0.4138,1.3592,-0.2169,26.07
16459,1671,2.7892,8.3749,-0.2825,0.377,1.0227,-0.1154,26.08
16469,1533,2.9042,8.928,-0.4932,0.3214,0.7171,-0.0229,26.08
16479,1488,2.9784,9.5553,-0.5674,0.2952,0.5372,0.0216,26.07
16489,1527,3.0813,10.1083,-0.4286,0.3477,0.5241,0,26.08
16499,1582,3.4261,10.3932,-0.2801,0.4527,0.6443,-0.037,26.09
16509,1647,3.9959,10.5273,-0.3543,0.5649,0.8194,-0.0613,26.08
16519,1693,4.6567,10.4555,-0.2873,0.5766,0.9417,-0.0304,26.09
16529,1787,5.4061,10.5345,0.0599,0.4674,0.8553,0.0709,26.09
16539,1801,5.9352,11.054,0.3807,0.3168,0.5423,0.1676,26.09
16549,1828,5.7964,12.0021,0.2394,0.1585,0.0536,0.2579,26.09
16559,1616,5.1404,12.651,-0.182,-0.0528,-0.4002,0.3461,26.1
16569,1693,4.3479,13.2136,0.1867,-0.1996,-0.7234,0.3659,26.07
16579,4095,3.4213,13.7643,1.1229,-0.1292,-0.9494,0.3544,26.07
16589,4095,2.6097,13.9175,1.9896,0.1172,-1.0664,0.3043,26.08
16599,4057,2.0518,13.4123,2.6001,0.3293,-1.0443,0.2009,26.08
16609,1248,1.6927,12.4618,3.1388,0.3816,-0.894,0.048,26.09
16613,1401,1.6328,12.0572,3.3088,0.3693,-0.8188,-0.0005,26.09
16623,1995,1.5443,11.3342,3.3327,0.202,-0.6339,-0.0677,26.09
16633,1934,1.8052,10.8386,3.3686,-0.199,-0.3706,-0.0328,26.09
16643,1979,2.1763,10.5177,3.7182,-0.7293,-0.0144,0.0983,26.07
16653,2067,2.6456,9.9335,4.1492,-1.2686,0.3904,0.2806,26.09
16663,2110,2.909,9.2344,4.5562,-1.6507,0.8143,0.4298,26.09
16673,2206,2.9856,8.509,5.0206,-1.7754,1.1642,0.5625,26.07
16683,2227,2.8204,7.6854,5.454,-1.5641,1.2625,0.6848,26.06
16693,2323,2.5355,6.8905,5.6072,-1.064,1.015,0.7767,26.07
16703,2320,2.1045,6.347,5.2625,-0.4708,0.514,0.773,26.07
16713,2304,1.4222,6.3159,4.4556,-0.0024,-0.0016,0.6598,26.08
16723,2400,0.5507,6.7253,3.3758,0.2465,-0.3147,0.4818,26.09
16733,2444,-0.1724,7.4747,2.2027,0.3187,-0.2835,0.2896,26.09
16743,2477,-0.5531,8.6143,0.8691,0.2505,0.15,0.1428,26.08
16753,2528,-0.2921,10.4267,0.0431,0.0536,0.9164,0.1362,26.07
16763,2544,1.0463,12.5528,0.6847,-0.1418,1.6883,0.385,26.08
16773,2547,3.699,12.8712,1.9345,-0.1732,2.2463,0.7584,26.08
16783,2555,6.2465,11.6837,2.6145,-0.1575,2.7121,0.8961,26.09
16793,2583,8.2384,10.331,3.699,-0.1801,2.9969,0.8228,26.08
16803,2610,9.6678,8.8059,4.7501,-0.2683,2.9452,0.5391,26.08
16813,2559,9.4475,7.6184,5.1811,-0.3635,2.4741,0.1593,26.09
16823,2539,8.588,7.0413,5.4899,-0.3741,1.7549,-0.1021,26.08
16833,2545,7.5944,6.8019,5.6671,-0.32,0.7645,-0.2414,26.09
16843,2519,6.3039,6.6511,5.4588,-0.2004,-0.417,-0.3072,26.08
16853,2402,4.6902,6.5984,4.8291,-0.0075,-1.5788,-0.3264,26.09
16863,2262,3.0406,6.5625,3.869,0.2542,-2.5135,-0.3115,26.09
16873,2221,1.798,6.4979,2.6719,0.5548,-3.0188,-0.3064,26.09
16883,2145,0.6464,6.371,1.3719,0.9236,-3.128,-0.3568,26.1
16893,2101,-0.2035,5.9903,-0.3998,1.2596,-2.9031,-0.4834,26.1
16903,2099,-1.1803,5.6958,-1.8771,1.4376,-2.3646,-0.6763,26.09
16913,2096,-2.0949,5.4444,-2.8563,1.3347,-1.7299,-0.829,26.11
16923,2105,-2.7749,5.5186,-3.0765,0.9244,-1.0573,-0.8327,26.08
16933,2103,-2.9568,5.679,-3.0143,0.2928,-0.36,-0.6611,26.1
16943,2126,-2.6097,5.9352,-2.1955,-0.4005,0.2723,-0.38,26.09
16953,2150,-1.5251,6.5242,-1.4653,-1.0144,0.7701,-0.0682,26.1
16963,2219,0.0048,7.118,-0.1676,-1.5271,1.162,0.2939,26.09
16973,2209,1.7095,7.6375,1.4461,-1.8458,1.2753,0.567,26.07
16983,2253,3.1963,8.0924,2.8659,-1.8738,1.0651,0.6965,26.09
16993,2288,4.3598,8.4396,3.8547,-1.5697,0.6286,0.684,26.1
17003,2294,4.968,8.576,4.0462,-1.0656,0.1135,0.5108,26.11
17007,2309,4.9704,8.6215,3.9552,-0.8394,-0.0786,0.4077,26.11
17017,2354,4.5849,8.5545,3.3016,-0.2886,-0.4303,0.1138,26.09
17027,2362,3.9935,8.6766,2.4397,0.1836,-0.6731,-0.1644,26.08
17037,2332,3.2609,8.9783,1.5562,0.5574,-0.8519,-0.344,26.09
17047,2368,2.4636,9.2871,0.5507,0.7898,-0.9742,-0.3928,26.09
17057,2396,1.6472,9.4068,-0.3711,0.8545,-1.0219,-0.3349,26.09
17067,2418,1.0582,9.3063,-0.8811,0.7767,-0.9864,-0.211,26.09
17077,2549,0.668,9.0333,-0.9912,0.6009,-0.8524,-0.0552,26.09
17087,2590,0.5578,8.7795,-0.7111,0.4061,-0.6611,0.1066,26.09
17097,2675,0.6895,8.8681,-0.0407,0.2766,-0.4541,0.2449,26.08
17107,2677,1.0295,9.2632,0.4381,0.2212,-0.3262,0.3685,26.1
17117,2608,1.3024,9.6319,0.4836,0.1396,-0.2809,0.5183,26.11
17127,2481,1.5251,10.0724,0.5124,-0.0304,-0.2662,0.631,26.11
17137,2299,1.6161,10.5225,0.3663,-0.2172,-0.2188,0.7088,26.08
17147,2233,2.0327,10.9559,0.2634,-0.3781,-0.0871,0.684,26.09
17157,2194,2.7078,11.7651,0.4884,-0.4021,0.1652,0.5553,26.09
17167,2162,3.6679,12.9526,1.1636,-0.2707,0.425,0.4343,26.1
17177,2195,4.877,13.8959,2.0782,0.0029,0.5673,0.4511,26.09
17187,2225,5.7317,14.2431,2.9401,0.3099,0.5209,0.6083,26.1
17197,2178,6.2513,13.4722,3.5889,0.5095,0.3832,0.8175,26.08
17207,2186,6.6511,12.0931,3.9816,0.4114,0.2539,0.8761,26.09
17217,2145,6.6152,11.0468,4.7956,0.0429,0.1071,0.7831,26.11
17227,1758,6.5841,10.1945,5.7628,-0.3365,-0.1045,0.5521,26.1
17237,2831,6.4284,9.6486,6.4404,-0.627,-0.2998,0.2284,26.09
17247,4095,6.1339,9.5768,6.7564,-0.8764,-0.1604,-0.0775,26.11
17257,4095,5.782,9.4882,6.9312,-1.1239,0.3893,-0.3864,26.1
17267,2899,5.2361,9.1387,7.434,-1.165,1.1271,-0.8058,26.09
17277,1715,4.3694,8.6622,7.5178,-0.7874,1.6553,-1.3137,26.1
17287,2160,3.8188,8.0254,7.0413,0.0232,1.7341,-1.7704,26.1
17297,2128,3.6536,7.3598,5.6623,1.0685,1.3019,-2.0936,26.12
17307,2082,3.6105,6.8139,3.7948,1.9468,0.5273,-2.0965,26.12
17317,2073,3.5817,6.4021,1.7573,2.3406,-0.3722,-1.7088,26.11
17327,2099,3.6081,6.1699,-0.3615,2.0454,-1.2809,-1.0621,26.11
17337,2098,3.6081,6.201,-1.9058,1.1301,-2.0552,-0.2899,26.1
17347,2108,3.699,6.3159,-2.3272,-0.0807,-2.6145,0.4407,26.11
17357,2139,3.5937,6.9719,-1.7334,-1.2817,-2.9367,1.0269,26.1
17367,2167,3.2825,8.3629,-0.0862,-2.258,-3.0169,1.546,26.1
17377,2183,3.304,9.7229,2.3703,-2.849,-2.8543,1.9742,26.11
17387,2220,3.8834,10.2783,5.0805,-2.9367,-2.484,1.9921,26.11
17397,2266,4.288,10.3669,6.8187,-2.4555,-1.8231,1.5018,26.1
17401,2288,4.3598,10.3741,7.0318,-2.1751,-1.4911,1.1804,26.11
17411,2276,3.6871,10.4483,6.6583,-1.4309,-0.6203,0.1596,26.11
17421,2287,2.3343,10.0078,5.466,-0.7005,0.2049,-0.7759,26.11
17431,2305,1.336,9.0166,4.4221,-0.0136,0.7141,-1.5447,26.09
17441,2335,0.7015,7.9487,3.7517,0.6475,0.8271,-2.063,26.11
17451,2327,0.5698,7.0605,2.6839,1.2143,0.6939,-2.2719,26.1
17461,2363,0.7111,6.4165,1.2641,1.5439,0.5249,-2.1698,26.11
17471,2326,0.8835,5.8419,0.0455,1.5735,0.3906,-1.8191,26.12
17481,2368,1.1612,5.3463,-0.9242,1.3209,0.2822,-1.3765,26.12
17491,2350,1.6257,4.8866,-1.336,0.9654,0.2214,-0.9036,26.11
17501,2323,2.2482,4.5226,-1.4533,0.6139,0.1865,-0.4607,26.11
17511,2314,2.9185,4.4508,-1.4317,0.303,0.1295,-0.0735,26.11
17521,2195,3.5219,4.7812,-1.2474,-0.0205,0.0298,0.2166,26.09
17531,2109,3.9624,5.4444,-0.7542,-0.3683,-0.1306,0.3853,26.09
17541,1967,3.8954,6.5266,0.1006,-0.7123,-0.3667,0.5047,26.1
17551,1886,3.6727,7.6112,1.0511,-0.9872,-0.6552,0.6502,26.1
17561,1857,3.4285,8.4156,1.798,-1.1221,-0.9028,0.7618,26.09
17571,1821,3.3806,8.691,2.229,-1.0674,-0.9774,0.7147,26.1
17581,1754,3.0454,8.9256,2.4038,-0.8359,-0.8103,0.4834,26.1
17591,1741,2.49,9.1602,2.1524,-0.4804,-0.4549,0.1567,26.09
17601,1712,1.7861,9.1099,1.3024,-0.1716,-0.0258,-0.1202,26.09
17611,1728,1.4389,8.8825,0.6297,0.0362,0.368,-0.2942,26.1
17621,1715,1.257,8.6479,0.1532,0.2001,0.6933,-0.4005,26.1
17631,1686,1.2689,8.5305,-0.0599,0.3262,0.9193,-0.4365,26.11
17641,1712,1.5299,8.4874,-0.2274,0.4325,1.0155,-0.4295,26.1
17651,1729,1.8986,8.6143,-0.237,0.4975,0.9968,-0.408,26.13
17661,1726,2.162,8.8825,-0.1365,0.526,0.8969,-0.3701,26.11
17671,1728,2.5474,9.2727,0.2203,0.5377,0.7533,-0.3203,26.11
17681,1751,2.9449,9.7755,0.5435,0.5601,0.5868,-0.2633,26.11
17691,1764,3.3591,10.1179,0.838,0.6254,0.4285,-0.219,26.12
17701,1753,3.723,10.1347,0.893,0.6819,0.2968,-0.1966,26.09
17711,1758,4.1228,9.8354,0.9026,0.6923,0.1831,-0.1796,26.09
17721,1785,4.3886,9.4954,0.8452,0.6576,0.0613,-0.1532,26.1
17731,1822,4.5346,9.3518,0.8021,0.5351,-0.1335,-0.114,26.11
17741,1846,4.4197,9.6582,0.6416,0.2782,-0.4146,-0.0421,26.09
17751,1947,4.312,10.4172,0.4453,-0.0544,-0.7325,0.0357,26.09
17761,2002,4.0462,11.3413,0.3376,-0.3637,-1.0405,0.0914,26.12
17771,2127,3.4572,12.1242,0.4597,-0.506,-1.2529,0.0882,26.11
17781,2139,2.5355,12.9167,0.7709,-0.4434,-1.2865,0.0733,26.1
17791,2134,1.403,13.4722,1.4748,-0.2214,-1.1517,0.1178,26.11
17795,2083,0.9577,13.4458,1.7669,-0.1045,-1.0973,0.13,26.11
17805,1888,0.328,13.0197,2.4253,0.2126,-0.9004,0.1204,26.13
17815,1751,0.0599,11.9183,2.7102,0.4226,-0.5558,0.0765,26.13
17825,1755,-0.0599,10.9032,2.8204,0.4349,-0.0967,0.0834,26.14
17835,1753,0.1867,10.0724,3.2202,0.1468,0.3451,0.0749,26.13
17845,1811,0.7781,9.5864,3.723,-0.3043,0.7645,0.0786,26.12
17855,1845,1.4485,9.2368,4.4149,-0.7101,1.1836,0.1761,26.11
17865,1891,2.1548,8.9519,5.0542,-1.0003,1.5319,0.3664,26.12
17875,1892,2.6121,8.5545,6.0478,-1.0821,1.6547,0.6049,26.1
17885,1918,2.9856,8.1666,6.6391,-0.939,1.436,0.8367,26.12
17895,1877,3.316,7.9104,6.5386,-0.6832,0.955,1.0064,26.13
17905,1535,3.4309,7.9176,5.794,-0.3976,0.4032,1.0666,26.13
17915,2609,3.2872,8.2768,4.7238,-0.1284,-0.0616,0.9729,26.12
17925,4095,3.0167,9.074,3.5578,0.0943,-0.2737,0.7514,26.11
17935,4095,2.7366,10.2304,2.5163,0.2574,-0.1404,0.4706,26.1
17945,2753,2.7342,11.6262,1.9034,0.3389,0.2822,0.2419,26.11
17955,1583,3.213,12.4379,1.7238,0.3848,0.8068,0.1466,26.12
17965,1975,4.0151,12.5049,2.0327,0.4554,1.3057,0.1639,26.12
17975,1910,4.8411,11.473,2.3296,0.474,1.7251,0.1801,26.12
17985,1835,5.4133,10.331,2.9616,0.4122,2.0105,0.1276,26.12
17995,1837,5.4588,9.3685,3.6152,0.2617,2.0382,0.0794,26.12
18005,1790,5.1068,8.5928,4.1587,0.0946,1.8066,0.0794,26.12
18015,1799,4.7453,8.0996,4.2665,-0.0205,1.3366,0.1092,26.11
18025,1793,4.3574,7.6878,4.063,-0.0397,0.6614,0.1354,26.12
18035,1808,3.8307,7.3502,3.4596,0.0509,-0.0818,0.1452,26.12
18045,1787,3.2274,7.0078,2.5809,0.2483,-0.7306,0.1415,26.11
18055,1813,2.5402,6.5745,1.6017,0.5415,-1.1964,0.0989,26.11
18065,1831,1.7645,6.1411,0.4788,0.8721,-1.428,0.0349,26.11
18075,1831,0.9313,5.6,-0.4812,1.1796,-1.4125,-0.0093,26.11
18085,1904,0.34,4.7692,-1.336,1.3422,-1.2454,-0.1415,26.12
18095,1849,-0.3735,4.4149,-1.8507,1.2841,-0.9792,-0.3144,26.13
18105,1856,-1.0223,4.2377,-2.1165,0.9864,-0.6869,-0.4391,26.11
18115,1920,-1.2953,4.2928,-2.1356,0.5148,-0.3627,-0.5532,26.12
18125,1937,-1.2258,4.8076,-1.6807,0.0224,0.0679,-0.5081,26.12
18135,1898,-0.9337,5.6192,-0.9673,-0.461,0.4687,-0.2875,26.11
18145,1984,-0.4453,6.8785,-0.1413,-0.9225,0.663,0.0573,26.12
18155,2018,0.4166,8.1499,0.6225,-1.3131,0.5894,0.4799,26.11
18165,2035,1.7286,8.8011,1.3503,-1.562,0.3443,0.8362,26.08
18175,2097,3.1244,8.679,2.1261,-1.5079,0.0983,0.9174,26.09
18185,2129,3.7397,8.6239,2.6264,-1.1453,-0.0506,0.7112,26.11
18189,2109,3.7733,8.6598,2.6791,-0.9558,-0.0823,0.5881,26.12
18199,2023,3.4429,8.4707,2.2075,-0.4759,-0.0847,0.247,26.12
18209,1919,3.0215,8.3462,1.6352,-0.1308,0.0205,-0.0352,26.12
18219,1881,2.7054,8.4659,1.336,0.1391,0.1098,-0.2252,26.12
18229,1855,2.3822,8.7532,1.0726,0.3848,0.0933,-0.3152,26.12
18239,1808,2.0638,8.9304,0.6177,0.5844,-0.0509,-0.3043,26.12
18249,1781,1.7885,8.8921,0.079,0.7173,-0.2545,-0.2022,26.1
18259,1777,1.5993,8.6407,-0.328,0.781,-0.4474,-0.0514,26.11
18269,1781,1.47,8.3941,-0.3711,0.7861,-0.5929,0.0914,26.12
18279,1819,1.154,8.4635,-0.431,0.7402,-0.6659,0.1972,26.12
18289,1857,0.8308,9.2296,-0.1915,0.6582,-0.6707,0.3352,26.14
18299,1814,0.7925,10.0556,-0.0527,0.526,-0.6821,0.5364,26.14
18309,1833,0.7302,10.7595,-0.1724,0.3166,-0.6555,0.6987,26.14
18319,1804,0.8595,11.4299,-0.1508,0.0757,-0.5276,0.7682,26.14
18329,1856,1.245,12.4834,-0.0311,-0.1511,-0.2614,0.708,26.14
18339,1853,2.0973,14.054,0.2251,-0.2729,0.1724,0.6182,26.12
18349,1843,3.4979,15.8592,0.9601,-0.2454,0.7178,0.615,26.1
18359,1869,5.2026,16.6349,2.3152,-0.0981,1.2028,0.7496,26.14
18369,1855,6.8067,15.6653,4.0199,0.0967,1.5162,0.8775,26.14
18379,1859,8.26,13.6589,5.2122,0.0871,1.5665,0.7621,26.13
18389,1884,8.9759,11.7795,6.256,-0.0949,1.4751,0.4714,26.14
18399,1882,8.8538,10.5943,6.6559,-0.3054,1.2662,0.211,26.14
18409,1856,8.3582,9.4212,6.4787,-0.5891,0.9936,-0.0139,26.14
18419,1839,7.2281,8.6933,6.541,-0.9052,0.663,-0.2819,26.13
18429,1817,6.1148,7.8841,6.7397,-0.9958,0.3635,-0.5905,26.13
18439,1872,5.138,7.4412,6.5386,-0.7544,0.2105,-0.9579,26.12
18449,1953,4.0941,7.2257,5.9304,-0.3008,0.1561,-1.3147,26.13
18459,1997,3.2082,6.9145,4.9943,0.3139,0.0373,-1.5636,26.13
18469,2080,2.5211,6.4452,3.7709,0.9766,-0.2497,-1.691,26.14
18479,2055,1.8699,6.1483,2.2913,1.4575,-0.6635,-1.6049,26.14
18489,2000,1.3671,6.0861,0.759,1.5556,-1.1024,-1.2478,26.14
18499,1835,1.1325,6.0693,-0.668,1.1884,-1.4805,-0.688,26.14
18509,1739,1.2306,6.1339,-1.4868,0.4375,-1.7512,-0.0775,26.14
18519,1743,1.4772,6.438,-1.4964,-0.5113,-1.9049,0.4724,26.17
18529,1745,1.7286,7.2089,-0.5411,-1.4368,-1.9348,0.9228,26.14
18539,1753,2.1787,8.3797,1.0343,-2.125,-1.8732,1.2851,26.14
18549,1803,2.7461,9.6702,2.7246,-2.4938,-1.6936,1.4933,26.12
18559,1831,3.6703,10.3765,4.1348,-2.4552,-1.3265,1.3957,26.14
18569,1852,4.3503,10.7164,4.9488,-2.0472,-0.7509,0.8788,26.13
18579,1885,4.3191,10.7595,5.0781,-1.3981,-0.0616,0.0797,26.13
18583,1899,4.0342,10.6135,4.9201,-1.1106,0.202,-0.2345,26.13
18593,1680,3.2441,9.7324,4.1779,-0.4149,0.769,-0.9262,26.14
18603,1647,2.6647,8.837,3.7517,0.2417,1.1407,-1.4341,26.13
18613,4095,2.4924,7.9487,3.2202,0.8239,1.2505,-1.7277,26.13
18623,4095,2.4205,7.082,2.5474,1.2332,1.145,-1.7941,26.12
18633,4095,2.2984,6.3997,1.7071,1.4232,0.9001,-1.6422,26.13
18643,1228,2.2817,5.7413,0.8332,1.3955,0.5883,-1.2961,26.13
18653,1734,2.2793,5.2816,0.0239,1.162,0.2555,-0.8628,26.13
18663,1845,2.308,4.9584,-0.6321,0.7935,-0.0474,-0.4032,26.13
18673,1791,2.4804,4.6902,-1.1085,0.3597,-0.3091,-0.0341,26.12
18683,1782,2.5857,4.9201,-1.2905,-0.0674,-0.4919,0.1687,26.13
18693,1809,2.5139,5.5809,-1.2522,-0.4421,-0.5225,0.2755,26.13
18703,1839,2.3343,6.5817,-0.8188,-0.752,-0.4229,0.3544,26.12
18713,1837,2.2003,7.8266,0.0048,-0.9574,-0.2848,0.4578,26.12
18723,1854,2.3343,8.7221,0.8571,-1.0349,-0.1833,0.5513,26.11
18733,1856,2.6504,9.0836,1.4509,-0.9726,-0.1031,0.5303,26.12
18743,1894,2.8946,9.2225,1.8555,-0.7725,0.0402,0.3635,26.13
18753,1947,2.9473,9.1698,1.9273,-0.486,0.2201,0.1066,26.11
18763,1936,2.5666,8.8873,1.4246,-0.231,0.3816,-0.1218,26.13
18773,1984,2.1141,8.6862,0.8428,-0.0482,0.5521,-0.2758,26.12
18783,1998,1.834,8.5425,0.3998,0.081,0.704,-0.3714,26.14
18793,2039,1.7645,8.521,0.103,0.1868,0.8154,-0.4247,26.13
18803,2090,1.9058,8.5856,0.0168,0.2894,0.8719,-0.4349,26.13
18813,2093,2.1428,8.7029,0.079,0.3938,0.8823,-0.404,26.14
18823,2145,2.4995,8.9256,0.2634,0.5055,0.8212,-0.3587,26.13
18833,2182,2.8539,9.1363,0.3376,0.6097,0.729,-0.3104,26.14
18843,2183,3.3686,9.3398,0.5028,0.6917,0.6158,-0.2942,26.13
18853,2193,3.8571,9.4116,0.6153,0.7402,0.4911,-0.2966,26.13
18863,2209,4.3072,9.3805,0.6728,0.7714,0.3539,-0.3128,26.13
18873,2205,4.6017,9.2105,0.6153,0.7384,0.1705,-0.3126,26.13
18883,2192,4.7309,9.3182,0.6943,0.6398,-0.0839,-0.2638,26.12
18893,2115,4.458,9.924,0.8787,0.4946,-0.4056,-0.122,26.12
18903,2066,4.1228,10.7332,0.9481,0.3134,-0.7906,0.1455,26.11
18913,1967,3.8403,11.3796,0.8092,0.0975,-1.1815,0.3709,26.14
18923,1901,3.2872,12.0835,1.075,-0.1841,-1.3472,0.6003,26.13
18933,1860,2.3822,12.6127,1.8914,-0.356,-1.5442,0.6408,26.14
18943,1850,1.221,13.3644,2.4804,-0.3344,-1.7088,0.6366,26.12
18953,1807,0.6201,13.4458,2.6624,-0.2475,-1.7547,0.6885,26.12
18963,1797,0.5315,12.9454,3.1508,-0.3075,-1.7134,0.5585,26.13
18973,1843,0.6081,12.3637,3.4524,-0.4956,-1.5399,0.2638,26.12
18977,1856,0.759,12.1506,3.5291,-0.5977,-1.4216,0.1303,26.12
18987,1934,1.2713,11.789,3.6368,-0.9097,-0.9657,-0.1378,26.14
18997,1945,2.0135,11.3653,3.9409,-1.1868,-0.2923,-0.2108,26.12
19007,1994,2.8683,10.5896,4.5681,-1.3819,0.5212,-0.1434,26.12
19017,2033,3.7158,9.4092,5.3846,-1.4352,1.3566,-0.0536,26.13
19027,2022,4.0821,8.3222,5.7724,-1.3219,2.0675,-0.0163,26.13
19037,2123,4.063,7.5034,6.292,-0.9747,2.4946,-0.0011,26.12
19047,2096,3.711,6.9839,6.3542,-0.2723,2.3539,0.0823,26.13
19057,2047,3.3255,6.9121,5.1523,0.5665,1.5084,0.2142,26.13
19067,1954,2.8323,6.7852,3.3615,1.1157,0.3397,0.3152,26.13
19077,1997,1.8459,6.7133,1.7119,1.2175,-0.7312,0.3291,26.13
19087,1950,0.5435,6.9001,0.1508,1.0158,-1.4245,0.2894,26.12
19097,1926,-0.8452,8.0158,-0.3519,0.68,-1.5743,0.284,26.12
19107,1915,-1.7957,10.4507,0.6536,0.4418,-1.3941,0.5558,26.12
19117,1886,-0.6728,11.722,1.8914,0.4575,-1.0344,1.0341,26.12
19127,1862,1.4198,12.1194,2.0877,0.6214,-0.3563,1.2244,26.13
19137,1851,3.3447,12.232,1.968,0.5654,0.5718,1.1253,26.14
19147,1891,5.3295,11.2934,3.1053,0.2177,1.4541,0.8162,26.12
19157,1959,6.596,10.0892,4.7262,-0.1396,2.0075,0.4202,26.13
19167,1962,7.3047,8.8442,5.3439,-0.4346,2.2953,0.073,26.12
19177,1981,7.0964,7.8195,5.5402,-0.6957,2.3587,-0.1836,26.11
19187,1975,6.1028,7.082,5.0063,-0.834,2.0989,-0.2526,26.13
19197,1942,5.533,6.5769,3.9768,-0.659,1.4666,-0.1607,26.12
19207,1843,4.9943,6.0837,3.201,-0.2838,0.5721,-0.122,26.13
19217,1602,3.7613,6.0956,2.5618,0.0978,-0.2529,-0.1849,26.12
19227,1589,2.5402,6.7995,2.0039,0.5732,-0.8356,-0.247,26.12
19237,1585,1.1636,7.0294,1.0271,1.0712,-1.133,-0.307,26.12
19247,1535,0.0503,6.8857,0.2969,1.4269,-1.1618,-0.3677,26.13
19257,1557,-0.6488,6.3566,-0.395,1.5847,-1.0453,-0.4578,26.13
19267,1584,-0.9625,5.9041,-1.1109,1.5031,-0.83,-0.538,26.13
19277,1556,-0.9313,5.7054,-1.3455,1.1847,-0.6019,-0.5359,26.12
19287,1586,-0.5339,5.8658,-1.221,0.7552,-0.3629,-0.3573,26.12
19297,1535,-0.1293,6.3542,-0.8667,0.2529,-0.1514,-0.0698,26.12
19307,1247,0.4956,6.8235,-0.3208,-0.2374,0.0456,0.2129,26.14
19317,2211,1.3527,7.3191,0.2514,-0.6595,0.1769,0.3992,26.13
19327,4095,2.1117,7.7069,0.8882,-0.9491,0.2238,0.5012,26.14
19337,4095,2.7557,7.9487,1.1229,-0.9974,0.239,0.5079,26.13
19347,2125,3.3184,8.1427,1.2474,-0.8231,0.1828,0.4199,26.15
19357,1145,3.7852,8.3246,1.3934,-0.5039,0.0085,0.2798,26.14
19367,1680,3.869,8.6359,1.2498,-0.1106,-0.2004,0.1503,26.13
19371,1703,3.8307,8.6407,1.1181,0.0464,-0.2798,0.1079,26.13
19381,1679,3.565,8.6167,0.5818,0.3685,-0.4493,0.0144,26.14
19391,1691,3.134,8.6239,0.1293,0.5196,-0.611,-0.0546,26.13
19401,1758,2.5642,8.6503,-0.2562,0.5297,-0.7565,-0.0727,26.13
19411,1776,1.6305,8.8418,-0.6512,0.4543,-0.8322,0,26.13
19421,1840,0.9194,8.9639,-0.8523,0.3219,-0.8042,0.1535,26.16
19431,1870,0.5076,9.1602,-0.7949,0.1519,-0.7005,0.3072,26.14
19441,1942,0.2682,9.4954,-0.589,-0.0245,-0.5518,0.4381,26.14
19451,2063,0.2729,9.8593,-0.2394,-0.1138,-0.3962,0.5436,26.14
19461,1991,0.4717,10.2256,-0.3256,-0.0861,-0.2417,0.5849,26.14
19471,2053,0.7446,10.6853,-0.7518,-0.0272,-0.0314,0.5961,26.12
19481,2092,1.403,11.0181,-0.9553,-0.0301,0.1463,0.567,26.12
19491,2123,2.1811,11.224,-1.1229,-0.0616,0.2507,0.4871,26.13
19501,2179,2.9951,11.2384,-1.1133,-0.1154,0.3182,0.372,26.13
19511,2174,3.881,11.2264,-0.6201,-0.1668,0.3952,0.2819,26.15
19521,2191,4.8315,11.4802,0.1508,-0.1428,0.425,0.323,26.14
19531,2285,5.6264,11.9159,1.3264,0.0069,0.3722,0.5793,26.14
19541,2239,6.256,12.1123,2.794,0.2659,0.1857,1.0171,26.13
19551,2256,7.7644,11.5903,3.8834,0.5204,-0.0171,1.4336,26.16
19561,2240,8.2121,10.9223,5.2672,0.6622,-0.3762,1.5777,26.15
19571,2251,8.2983,10.6662,5.4492,0.5548,-0.7464,1.4829,26.14
19581,2289,7.6614,10.4363,5.351,0.1716,-0.9585,1.2284,26.14
19591,2269,7.015,9.7659,4.9608,-0.4066,-0.8466,0.7941,26.13
19601,2204,6.0094,9.0094,4.9368,-1.186,-0.388,0.2001,26.13
19611,2127,5.0637,8.5305,5.3726,-1.866,0.3443,-0.425,26.14
19621,2064,3.9217,8.3917,5.624,-2.1818,1.2556,-0.9419,26.14
19631,2020,2.9353,8.5617,5.5234,-1.943,1.8175,-1.3614,26.13
19641,1946,2.7869,9.1051,4.391,-1.0232,1.5124,-1.6827,26.13
19651,1949,3.0885,9.2129,3.213,0.1194,0.6859,-1.7437,26.13
19661,1913,3.1125,8.6742,2.0973,0.9196,-0.2779,-1.5234,26.14
19671,1934,3.0287,8.0876,0.723,1.1477,-1.1159,-1.048,26.14
19681,1951,2.7869,7.9248,-0.5291,0.8298,-1.7501,-0.4021,26.14
19691,1923,2.7294,8.1403,-0.3711,0.1537,-2.1088,0.2777,26.14
19701,1921,3.304,8.3773,1.0558,-0.4298,-2.2564,0.9097,26.14
19711,1889,4.4628,8.8849,2.5331,-0.813,-2.311,1.3107,26.13
19721,1901,5.3008,9.5193,3.5889,-1.0571,-2.198,1.441,26.13
19731,1935,5.9927,9.8737,3.7589,-1.3054,-1.8898,1.2662,26.14
19741,1936,5.8658,10.0533,3.9217,-1.5449,-1.2835,0.8524,26.13
19751,1963,5.0422,9.9431,4.0677,-1.6414,-0.4383,0.2441,26.12
19761,1887,3.7278,9.6558,3.8571,-1.5226,0.3152,-0.4378,26.12
19765,1887,3.1747,9.6007,3.6943,-1.3744,0.5431,-0.6877,26.13
19775,1920,2.3798,8.8873,3.1795,-0.7477,0.8809,-1.258,26.14
19785,1815,2.1332,8.0852,2.6193,0.065,0.9081,-1.7456,26.15
19795,1808,2.2625,7.4077,1.6903,0.773,0.7775,-2.0195,26.14
19805,1791,2.0183,6.7397,0.5531,1.1847,0.583,-2.0312,26.14
19815,1764,1.7837,5.8395,-0.2945,1.3219,0.323,-1.8162,26.12
19825,1747,1.5778,4.8937,-0.8212,1.2295,0.0184,-1.509,26.12
19835,1790,1.3695,4.1204,-1.0487,1.0051,-0.2753,-1.1786,26.13
19845,1867,1.0439,3.802,-1.4892,0.7282,-0.4738,-0.7626,26.12
19855,1866,0.9146,4.0103,-1.7502,0.3906,-0.489,-0.2214,26.13
19865,1915,1.4389,4.4915,-1.1444,0.0767,-0.4183,0.2723,26.14
19875,1919,1.9082,5.2385,-0.3328,-0.1665,-0.3621,0.5915,26.12
19885,1845,2.332,6.1555,0.4693,-0.3443,-0.2963,0.8079,26.12
19895,1621,2.6312,6.8785,0.9481,-0.4567,-0.1807,0.8998,26.14
19905,1455,2.818,7.4508,1.4724,-0.5289,-0.0112,0.8593,26.15
19915,1385,2.8228,7.9248,1.7885,-0.5297,0.1474,0.6992,26.15
19925,1378,2.7629,8.2121,1.8268,-0.4775,0.3208,0.4421,26.14
19935,1355,2.5857,8.4348,1.6855,-0.3826,0.5002,0.109,26.14
19945,1349,2.1524,8.4108,1.1468,-0.3339,0.6971,-0.1831,26.12
19955,1361,1.6903,8.4491,0.668,-0.3371,0.9761,-0.3744,26.14
19965,1388,1.6233,8.4036,0.5148,-0.3155,1.3121,-0.47,26.16
19975,1365,1.7837,8.4036,0.51,-0.199,1.6286,-0.5569,26.15
