time, ECG, accX, accY, accZ, gyroX, gyroY, gyroZ, temp
2047,1770,4.639963,8.74123,-0.938527,-0.060487,-0.240083,0.363988,23.594706
2057,1791,4.800375,8.331821,-0.493206,-0.202245,-0.258735,0.41275,23.585882
2067,1845,4.979939,8.14268,0.007183,-0.338674,-0.301369,0.427672,23.597647
2077,1871,5.214571,8.286332,0.399832,-0.474836,-0.389568,0.403158,23.597647
2087,1954,5.525817,8.722076,0.593762,-0.601406,-0.512407,0.334943,23.585882
2097,2017,5.671864,9.25359,0.617704,-0.64857,-0.645372,0.228891,23.600588
2107,2089,5.535394,9.727641,0.464475,-0.580089,-0.771409,0.111381,23.603529
2117,2125,5.200206,10.000581,0.251391,-0.460714,-0.846818,0.006395,23.597647
2127,2256,4.72376,10.031705,0.095768,-0.377577,-0.864138,-0.070879,23.588823
2137,2304,4.237737,10.031705,-0.047884,-0.391966,-0.840156,-0.115645,23.594706
2147,2352,3.813963,10.127473,-0.196325,-0.486294,-0.795657,-0.132698,23.588823
2157,2353,3.53863,10.290278,-0.373495,-0.580089,-0.731173,-0.129501,23.603529
2167,2311,3.366248,10.34774,-0.56982,-0.589415,-0.640309,-0.123106,23.603529
2177,2126,3.29921,10.180145,-0.665588,-0.49189,-0.526263,-0.127369,23.600588
2187,1974,3.232172,9.799467,-0.634463,-0.341605,-0.41355,-0.132165,23.600588
2197,1878,3.150769,9.301474,-0.581791,-0.218499,-0.326949,-0.127902,23.585882
2207,1781,3.119645,8.825027,-0.581791,-0.143357,-0.280052,-0.118043,23.600588
2217,1737,3.107674,8.470686,-0.737414,-0.094328,-0.263531,-0.10392,23.603529
2227,1695,3.100491,8.226477,-0.936133,-0.052227,-0.269394,-0.091663,23.603529
2237,1658,3.110068,8.051701,-1.264138,-0.02185,-0.286447,-0.0874,23.597647
2247,1641,3.100491,7.90326,-1.493982,-0.01279,-0.303234,-0.086067,23.609411
2257,1661,3.028665,7.728483,-1.632846,-0.024781,-0.314692,-0.086867,23.60647
2267,1662,2.971204,7.510611,-1.704672,-0.053026,-0.32615,-0.0874,23.60647
2277,1675,2.916138,7.24246,-1.640028,-0.089265,-0.342937,-0.084202,23.615294
2287,1678,2.861071,7.00304,-1.549049,-0.141758,-0.36159,-0.086067,23.60647
2297,1712,2.80361,6.854599,-1.458069,-0.19585,-0.374113,-0.103387,23.618235
2307,1751,2.734178,6.833052,-1.462857,-0.236885,-0.380242,-0.135096,23.60647
2317,1687,2.657564,6.907272,-1.436521,-0.258202,-0.374913,-0.16947,23.627058
2327,1727,2.583344,7.012617,-1.422156,-0.259801,-0.354928,-0.196916,23.618235
2337,1723,2.542642,7.065289,-1.419762,-0.240349,-0.316557,-0.214236,23.609411
2347,1762,2.516306,7.103596,-1.383849,-0.201446,-0.269127,-0.214236,23.600588
2378,1765,2.647987,7.050924,-1.357512,-0.084469,-0.159877,-0.156147,23.603529
2388,1826,2.712631,7.000646,-1.417367,-0.074876,-0.158545,-0.14762,23.597647
2398,1798,2.827552,7.096414,-1.501164,-0.10019,-0.164141,-0.147887,23.600588
2408,1776,2.973598,7.350199,-1.539472,-0.166806,-0.165207,-0.153749,23.60647
2418,1712,3.189077,7.752425,-1.51553,-0.252606,-0.159877,-0.166006,23.603529
2428,1722,3.459621,8.327033,-1.407791,-0.324018,-0.16041,-0.186257,23.60647
2438,1728,3.739743,9.02614,-1.290475,-0.346135,-0.187323,-0.213969,23.597647
2448,1761,3.979163,9.768343,-1.25935,-0.297106,-0.239017,-0.248343,23.60647
2458,1776,4.084508,10.371682,-1.312023,-0.174,-0.295773,-0.284848,23.618235
2468,1787,4.048595,10.682928,-1.429338,0.007727,-0.330147,-0.318689,23.615294
2478,1778,3.861847,10.599131,-1.534683,0.202245,-0.330946,-0.339207,23.60647
2488,1859,3.548207,10.28549,-1.771709,0.340539,-0.307498,-0.346934,23.615294
2498,1987,3.205836,9.935937,-2.090138,0.373047,-0.272325,-0.33894,23.624117
2508,2107,2.896984,9.706094,-2.430115,0.311228,-0.232888,-0.316557,23.624117
2518,2114,2.681506,9.629479,-2.6839,0.189721,-0.191587,-0.283516,23.615294
2528,2031,2.537854,9.799467,-2.667141,0.038637,-0.152683,-0.239017,23.627058
2538,1828,2.557007,10.268731,-2.442086,-0.15215,-0.131899,-0.197449,23.612352
2548,1810,2.741361,11.022904,-2.118869,-0.379709,-0.170536,-0.174,23.609411
2558,1809,3.016694,11.827356,-1.740585,-0.572894,-0.253939,-0.165473,23.621176
2568,1856,3.315969,12.385205,-1.355118,-0.671219,-0.33068,-0.171335,23.624117
2578,1859,3.514688,12.469003,-0.869095,-0.661893,-0.355194,-0.202778,23.627058
2588,1873,3.519476,12.11466,-0.323217,-0.576358,-0.330147,-0.27419,23.621176
2598,1840,3.284845,11.619061,0.21069,-0.49642,-0.289112,-0.377311,23.63294
2608,1808,2.875436,11.346122,0.550666,-0.507345,-0.281651,-0.469507,23.624117
2618,2057,2.372654,11.238382,0.667982,-0.604337,-0.313626,-0.500683,23.627058
2628,2110,1.963245,11.025299,0.47884,-0.644573,-0.317623,-0.45272,23.618235
2638,1712,1.563414,10.601525,0.294487,-0.577158,-0.278986,-0.375712,23.621176
2648,2400,1.233014,9.993398,0.093374,-0.505746,-0.184392,-0.297106,23.638824
2658,4095,1.051055,9.186552,0.169988,-0.494288,-0.045299,-0.221963,23.629999
2668,4095,0.995988,8.8777,1.206678,-0.483363,0.170536,-0.197449,23.624117
2678,3306,-0.083797,10.524911,5.116409,0.725577,2.400827,-0.609133,23.638824
2688,1575,-0.363919,11.432313,4.606444,2.248943,3.256971,-1.012824,23.621176
2698,2078,0.840365,9.148245,2.96881,2.676083,2.754689,-0.99657,23.627058
2708,2135,1.580173,7.869741,2.190695,2.842355,2.039237,-0.908637,23.629999
2718,2112,0.122104,9.19134,0.806846,2.636113,0.901709,-0.864138,23.638824
2728,2189,0.608127,10.970232,-1.661576,2.265997,-0.126303,-0.609666,23.635881
2738,2144,2.528277,10.429143,-4.537012,1.969158,-0.684809,-0.438331,23.638824
2748,2323,3.114856,9.576807,-5.635951,1.658463,-0.564101,-0.58675,23.618235
2758,2257,2.341529,9.540894,-4.771644,1.213204,-0.262199,-0.891051,23.627058
2768,2271,1.340753,10.031705,-3.727772,0.670953,-0.049562,-1.003231,23.624117
2778,2263,0.488417,9.844957,-3.184288,0.148686,0.205976,-0.94834,23.635881
2788,2313,0.390255,9.514558,-2.755726,-0.026646,0.397828,-1.027746,23.650589
2798,2288,0.452504,9.081207,-2.659958,0.13856,0.596609,-1.299538,23.641766
2808,2461,0.52433,9.121908,-2.944868,0.190787,0.749559,-1.626753,23.647648
2818,2295,0.64404,9.181764,-2.858677,0.03464,0.82257,-1.882824,23.635881
2828,2355,0.258574,9.701305,-2.987964,-0.233688,0.717583,-1.890018,23.641766
2838,2326,-0.452504,11.003751,-3.184288,-0.51827,0.494554,-1.432236,23.641766
2848,2339,-0.641646,10.520123,-2.341529,-0.593145,0.153482,-0.580622,23.644707
2858,2431,-0.536301,6.983886,-1.970428,-0.274456,-0.4354,-0.384505,23.644707
2868,2474,-0.605733,7.661446,-3.366248,-0.203044,-0.518802,-0.39543,23.644707
2878,2459,-0.665588,8.444349,-2.964022,-0.405023,-0.452453,-0.400493,23.638824
2888,2505,-0.902614,8.803479,-2.245761,-0.53559,-0.196916,-0.434334,23.641766
2898,2449,-1.496376,9.102755,-1.343147,-0.489492,0.236619,-0.347467,23.647648
2908,2433,-1.462857,9.255983,-0.416591,-0.206508,0.66509,-0.098325,23.638824
2918,2335,-1.161188,9.263166,-0.122104,0.233421,0.943277,0.207041,23.63294
2928,2167,-0.972046,8.99741,-0.320823,0.592346,1.025348,0.492423,23.63294
2938,2004,-0.550666,8.116343,-1.122881,0.820172,0.989109,0.66589,23.638824
2948,1793,-0.050278,7.177817,-2.116474,0.894781,0.968591,0.679746,23.647648
2958,1663,0.311246,6.440403,-2.920926,0.768478,0.972588,0.572095,23.656471
2968,1651,0.608127,6.05733,-3.239355,0.491357,0.974986,0.3909,23.650589
2978,1763,0.732626,6.296751,-2.829947,0.127369,0.826034,0.222763,23.650589
2988,1677,0.766145,6.914454,-1.771709,-0.122573,0.53026,0.185724,23.638824
2998,1596,0.830788,7.548918,-1.043872,-0.097525,0.24408,0.214502,23.65353
3008,1633,0.916979,7.94875,-1.13964,0.077807,0.06928,0.214502,23.638824
3018,1581,0.926556,8.178593,-1.541866,0.198515,-0.009326,0.160144,23.644707
3028,1571,0.665588,8.461109,-2.097321,0.232355,-0.042101,0.083403,23.65353
3038,1632,0.244209,8.719683,-2.533065,0.218233,-0.051427,0.048496,23.650589
3048,1659,-0.258574,8.975863,-2.770091,0.213436,-0.027179,0.083936,23.65353
3058,1670,-0.581791,9.136273,-3.007117,0.224628,0.037838,0.159611,23.671177
3068,1637,-0.608127,9.234436,-3.157952,0.228891,0.136962,0.230757,23.665295
3078,1674,-0.25618,9.306262,-3.229778,0.207308,0.217167,0.262998,23.668236
3088,1628,0.222661,9.619903,-3.296816,0.165473,0.268328,0.276855,23.647648
3098,1681,0.577003,10.041282,-3.438074,0.119375,0.279519,0.287247,23.647648
3108,1726,0.823605,10.283096,-3.49314,0.10472,0.237685,0.28325,23.638824
3118,1675,1.132457,10.323798,-3.41892,0.141225,0.131632,0.272858,23.641766
3128,1701,1.410185,10.323798,-3.1795,0.204643,-0.03011,0.258735,23.641766
3138,1716,1.486799,10.457873,-3.167529,0.233688,-0.206242,0.239017,23.647648
3148,1682,1.419762,10.919954,-3.406949,0.160144,-0.363988,0.239017,23.65353
3158,1665,1.357512,11.566388,-3.799598,-0.003464,-0.444726,0.219565,23.641766
3168,1711,1.182736,12.191275,-4.067749,-0.162809,-0.443394,0.176132,23.65353
3178,1730,0.782904,12.91193,-3.964798,-0.350931,-0.456717,0.19585,23.644707
3188,1653,0.938527,12.186486,-3.454833,-0.455118,-0.563568,0.309363,23.65353
3198,1677,1.290475,11.559206,-3.040636,-0.405289,-0.560104,0.347734,23.656471
3208,1705,1.678335,11.408371,-2.731784,-0.445259,-0.49562,0.399694,23.65353
3218,1691,2.102109,11.686098,-2.39899,-0.493222,-0.371449,0.450588,23.659412
3228,1731,2.607286,11.480197,-1.900996,-0.482564,-0.329614,0.478034,23.656471
3238,1821,3.078943,10.96305,-1.374272,-0.385571,-0.383706,0.44739,23.650589
3248,1929,3.057395,10.618284,-0.845153,-0.265663,-0.512407,0.409553,23.647648
3258,1995,2.72939,10.366894,-0.347159,-0.167605,-0.704527,0.408487,23.659412
3268,1889,2.425326,10.184934,0.019154,-0.020251,-0.950205,0.454851,23.656471
3278,1853,2.157176,10.038888,0.287304,0.184392,-1.173767,0.53559,23.656471
3288,1751,1.810017,9.828198,0.169988,0.406888,-1.28275,0.650968,23.662354
3298,1680,1.527501,9.433155,-0.246603,0.543317,-1.212404,0.797256,23.662354
3308,1605,1.450886,8.961497,-0.78051,0.563035,-0.910769,0.93475,23.665295
3318,1584,1.90339,8.722076,-1.273715,0.483096,-0.483629,1.013357,23.656471
3328,1649,3.031059,8.738836,-1.608904,0.350132,-0.101789,0.969124,23.656471
3338,1648,4.036624,9.210494,-2.166753,0.202511,0.01359,0.713587,23.662354
3348,1715,4.192247,9.979033,-2.837129,0.187057,-0.094328,0.382907,23.662354
3358,1854,4.156334,10.041282,-3.572149,0.192652,-0.271525,0.130833,23.668236
3368,1833,3.900155,9.646238,-3.641581,0.072744,-0.43007,-0.002398,23.671177
3378,1787,3.356671,9.28232,-3.330335,-0.138028,-0.606202,-0.050361,23.665295
3388,1447,2.645593,9.169792,-3.004723,-0.306698,-0.779136,-0.074077,23.647648
3398,1790,1.910573,9.220071,-2.662352,-0.387969,-0.927822,-0.078606,23.671177
3408,4095,1.525106,9.045294,-2.049437,-0.384772,-1.027213,-0.072211,23.665295
3418,4095,1.309628,8.719683,-1.900996,-0.357593,-1.027746,-0.09193,23.68
3428,3544,0.670376,8.461109,-2.061408,-0.362123,-0.907305,-0.084202,23.68
3438,1183,0.526724,8.259995,-2.339135,-0.362922,-0.736236,0.008527,23.674118
3448,1730,0.969652,8.197746,-2.3535,-0.279519,-0.576891,0.098591,23.656471
3458,1840,1.563414,8.020576,-2.300828,-0.168671,-0.523066,0.121773,23.65353
3468,1836,1.970428,7.745243,-2.32477,-0.0866,-0.522533,0.059421,23.671177
3478,1835,2.082955,7.532158,-2.343924,-0.05196,-0.52653,-0.032242,23.665295
3488,1878,1.889025,7.290344,-2.408567,-0.06928,-0.545982,-0.125504,23.662354
3498,1905,1.563414,7.117962,-2.525883,-0.131366,-0.578757,-0.203311,23.65353
3508,1925,1.321599,6.871359,-2.39899,-0.194784,-0.624855,-0.266729,23.674118
3518,1985,1.146823,6.959944,-2.229002,-0.213969,-0.664291,-0.319222,23.668236
3528,2015,1.022324,7.208941,-2.401384,-0.20491,-0.666423,-0.352796,23.677059
3538,2071,0.885855,7.249643,-2.60968,-0.22223,-0.609133,-0.385838,23.674118
3548,2105,0.790087,7.467515,-2.808398,-0.273657,-0.485761,-0.416481,23.682941
3558,2157,0.682347,7.872135,-2.870648,-0.304567,-0.358925,-0.413283,23.685883
3568,2209,0.756568,8.231265,-2.829947,-0.260334,-0.306965,-0.379975,23.674118
3578,2315,1.000776,8.468291,-2.930503,-0.160144,-0.306698,-0.323485,23.671177
3588,2234,1.173159,8.528147,-3.009511,-0.086334,-0.328282,-0.264331,23.691765
3598,2301,1.170765,8.492233,-2.817975,-0.06102,-0.347467,-0.180928,23.665295
3608,2443,1.513135,8.406042,-2.322376,0.037571,-0.408753,-0.136162,23.671177
3618,2439,1.831564,8.463503,-2.377442,0.190787,-0.505479,-0.163075,23.662354
3628,2423,1.917756,8.559271,-2.791639,0.248077,-0.547314,-0.191054,23.668236
3638,2477,1.795651,8.74123,-3.191471,0.190787,-0.518802,-0.200646,23.668236
3648,2640,1.479617,8.942344,-3.375824,0.119109,-0.444193,-0.189455,23.668236
3658,2362,1.158794,9.069236,-3.430891,0.096193,-0.348266,-0.162009,23.674118
3668,2299,0.912191,9.227253,-3.505111,0.087133,-0.233421,-0.124438,23.694706
3678,2255,0.955287,9.339781,-3.512294,0.065816,-0.109783,-0.09113,23.688824
3688,2007,1.120486,9.483433,-3.526659,0.058355,0.010392,-0.087666,23.691765
3698,1938,1.118092,9.65821,-3.636792,0.050095,0.088199,-0.110582,23.691765
3708,1904,0.991199,9.655815,-3.766079,0.035972,0.118309,-0.135096,23.685883
3718,1911,0.837971,9.756371,-3.691859,0.052493,0.087666,-0.147887,23.68
3728,1778,0.88346,9.730036,-3.564966,0.106585,0.002132,-0.126836,23.688824
3738,1738,0.955287,9.727641,-3.8403,0.144956,-0.089265,-0.108184,23.665295
3748,1819,0.90022,9.708488,-4.158728,0.162542,-0.140959,-0.106585,23.68
3758,1769,0.799663,9.562442,-4.06296,0.185724,-0.184392,-0.088732,23.700588
3768,1775,0.682347,9.579201,-3.828329,0.188922,-0.215302,-0.038371,23.688824
3778,1776,0.656011,10.026917,-3.881001,0.124438,-0.19132,0.019452,23.688824
3788,1807,0.842759,10.82658,-4.357447,-0.028511,-0.072744,0.005329,23.691765
3798,1836,0.907402,11.365275,-4.639963,-0.166539,0.108983,-0.114845,23.691765
3808,1747,0.751779,11.437101,-4.213795,-0.185991,0.208907,-0.216368,23.682941
3818,1818,0.349553,11.281479,-3.801992,-0.150285,0.180662,-0.228092,23.694706
3828,1793,-0.100556,11.348516,-3.557784,-0.145222,0.14389,-0.176132,23.691765
3838,1782,-0.241814,11.585542,-3.069367,-0.173467,0.171069,-0.115112,23.688824
3848,1833,-0.177171,11.781867,-2.717419,-0.175066,0.245145,-0.111648,23.685883
3858,1773,-0.220267,11.60709,-2.432509,-0.106851,0.363721,-0.157746,23.694706
3868,1735,-0.452504,11.020511,-2.102109,0.010126,0.45645,-0.164674,23.700588
3878,1759,-0.754174,10.465055,-1.984793,0.12657,0.494021,-0.081804,23.674118
3888,1791,-0.835576,9.955091,-1.812411,0.195051,0.500417,0.040502,23.688824
3898,1790,-0.584185,9.421184,-1.446098,0.190521,0.475369,0.124971,23.688824
3908,1845,-0.098162,9.011775,-1.04866,0.159345,0.424475,0.118842,23.703529
3918,1827,0.392649,8.913613,-0.895431,0.145489,0.376778,0.017853,23.685883
3928,1863,0.584185,9.090784,-1.151611,0.133231,0.363188,-0.138028,23.691765
3938,1878,0.454898,9.351752,-1.640028,0.093528,0.403424,-0.290178,23.68
3948,1865,0.114922,9.588778,-2.06859,0.020784,0.508677,-0.372515,23.677059
3958,1850,-0.167594,9.785102,-2.317587,-0.086334,0.64324,-0.37358,23.68
3968,1893,-0.292093,10.010158,-2.437297,-0.224361,0.775139,-0.330413,23.674118
3978,1828,-0.268151,10.366894,-2.549825,-0.362389,0.880392,-0.281917,23.674118
3988,1874,-0.213084,10.766725,-2.604892,-0.459115,0.912634,-0.23875,23.700588
3998,1911,-0.407014,11.731588,-2.480393,-0.537721,0.838291,-0.140426,23.685883
4008,1883,0.131681,10.886436,-2.506729,-0.525198,0.623256,0.041568,23.691765
4018,1899,0.509965,10.110714,-2.863465,-0.441795,0.597409,0.085534,23.694706
4028,1883,0.536301,9.691729,-3.040636,-0.498818,0.677881,0.088466,23.697647
4038,1777,0.505177,9.572019,-2.762909,-0.569697,0.742897,0.106585,23.718235
4048,1568,0.52433,9.449914,-2.442086,-0.581155,0.719182,0.150551,23.709412
4058,1488,0.624887,9.437943,-1.850718,-0.524665,0.63125,0.193185,23.697647
4068,1507,0.823605,9.397242,-1.489193,-0.376245,0.511075,0.183326,23.709412
4078,1455,0.713472,9.217676,-1.426944,-0.20864,0.422077,0.147354,23.709412
4088,1472,0.45011,8.863335,-1.486799,-0.065283,0.393032,0.118043,23.691765
4098,1489,0.296881,8.439561,-1.522712,0.031709,0.38717,0.099657,23.691765
4108,1467,0.158017,8.137892,-1.726219,0.096193,0.408487,0.097792,23.703529
4118,1517,0.098162,7.879318,-2.073379,0.126303,0.455384,0.113513,23.700588
4128,1658,0.28491,7.601591,-2.30801,0.107917,0.498018,0.133764,23.709412
4138,1619,0.512359,7.414843,-2.449268,0.050894,0.514006,0.127369,23.712353
4148,1098,0.648829,7.489063,-2.528277,-0.025047,0.503881,0.104187,23.703529
4158,1739,0.548272,7.702147,-2.461239,-0.094061,0.488159,0.109783,23.703529
4168,4095,0.502782,7.790732,-2.319981,-0.128701,0.452453,0.139893,23.715294
4178,4095,0.280122,7.764396,-2.396596,-0.151084,0.42181,0.16574,23.694706
4188,2250,-0.021548,7.745243,-2.425326,-0.171602,0.425008,0.200113,23.700588
4198,986,-0.277727,7.809886,-2.430115,-0.195583,0.441528,0.27419,23.694706
4208,1535,-0.179565,7.764396,-2.329558,-0.205976,0.443926,0.379443,23.688824
4218,1607,0.280122,7.730877,-1.898602,-0.180395,0.41355,0.463645,23.700588
4228,1516,0.912191,7.809886,-1.414973,-0.123639,0.350398,0.496686,23.697647
4238,1502,1.386243,7.970297,-1.273715,-0.03011,0.281118,0.436466,23.709412
4248,1535,1.532289,8.192958,-1.546654,0.078074,0.224095,0.291776,23.703529
4258,1535,1.235408,8.348581,-2.217031,0.137761,0.198248,0.162542,23.700588
4268,1600,0.691924,8.401254,-2.664747,0.107118,0.221164,0.124971,23.697647
4278,1661,0.280122,8.532935,-2.839523,0.035173,0.271259,0.155614,23.700588
4288,1651,0.146046,8.887277,-2.906561,-0.042101,0.311761,0.196916,23.688824
4298,1805,0.268151,9.342175,-2.832341,-0.087933,0.326417,0.220364,23.694706
4308,1717,0.519542,9.758766,-2.75812,-0.101256,0.306165,0.224095,23.691765
4318,1804,0.665588,10.024523,-2.789245,-0.109516,0.285648,0.240882,23.703529
4328,1885,0.78051,10.160992,-2.736573,-0.097259,0.268061,0.258469,23.709412
4338,1938,0.986411,10.268731,-2.525883,-0.048763,0.229158,0.258469,23.700588
4348,2009,1.23062,10.259154,-2.135628,0.052227,0.125237,0.25607,23.709412
4358,2116,1.66397,10.376471,-1.793257,0.222763,-0.029844,0.206242,23.721176
4368,2169,2.003947,10.613496,-2.391808,0.405556,-0.194518,0.125504,23.70647
4378,2233,1.80044,10.776301,-3.181894,0.514539,-0.288046,0.059688,23.700588
4388,2270,1.345541,10.747571,-3.809175,0.516138,-0.321887,0.064484,23.70647
4398,2329,1.012747,11.001357,-4.381389,0.341338,-0.29604,0.137761,23.703529
4408,2335,1.077391,11.360487,-4.733337,0.067681,-0.194518,0.189455,23.703529
4418,2336,1.403002,11.494562,-4.436456,-0.136162,-0.090064,0.18226,23.712353
4428,2240,1.886631,11.47062,-3.813963,-0.23502,-0.055957,0.167072,23.709412
4438,2059,2.32477,11.271901,-3.083732,-0.261666,-0.080738,0.16574,23.721176
4448,1947,2.595315,11.051635,-2.753332,-0.277387,-0.130833,0.16574,23.718235
4458,1841,2.724602,11.128249,-2.590526,-0.316025,-0.173201,0.166806,23.709412
4468,1766,3.035848,11.341333,-2.554613,-0.31789,-0.204643,0.163075,23.715294
4478,1719,3.155558,11.267113,-2.291251,-0.306432,-0.209706,0.126037,23.712353
4488,1685,2.731784,10.805033,-1.872266,-0.290178,-0.243813,0.104187,23.718235
4498,1651,2.099715,10.354922,-1.482011,-0.256337,-0.256337,0.154015,23.715294
4508,1722,1.570596,10.000581,-1.264138,-0.229424,-0.21317,0.273391,23.718235
4518,1744,1.654393,10.292673,-0.169988,-0.137228,-0.110582,0.410086,23.703529
4528,1621,2.616863,10.271125,0.605733,0.103654,-0.0429,0.443926,23.715294
4538,1619,3.313575,9.76116,0.92895,0.3051,-0.268061,0.489758,23.732941
4548,1616,3.153164,9.337387,0.670376,0.427406,-0.471905,0.528662,23.732941
4558,1661,2.987964,9.124303,-0.248997,0.497219,-0.547847,0.530793,23.724117
4568,1666,3.004723,8.963891,-1.412579,0.511874,-0.399694,0.486827,23.724117
4578,1680,3.416526,9.040505,-2.082955,0.518003,-0.144689,0.387436,23.727058
4588,1726,3.785233,9.320627,-3.026271,0.441528,0.053292,0.260867,23.721176
4598,1789,3.821146,9.528923,-4.103662,0.184126,0.173467,0.173467,23.715294
4608,1830,3.742137,9.548077,-4.24492,-0.133764,0.193185,0.136695,23.727058
4618,1795,3.251326,9.497798,-3.596091,-0.413017,0.134564,0.149219,23.73
4628,1873,2.267309,9.495404,-3.371036,-0.697066,0.115911,0.248343,23.732941
4638,1762,1.309628,9.248801,-3.481169,-0.985645,0.187057,0.415948,23.73
4648,1808,0.529119,9.038112,-3.55539,-1.243047,0.362389,0.590747,23.73
4658,1863,3.028665,8.971074,-2.087744,-1.36562,0.331746,0.589149,23.718235
4668,1872,3.653552,8.724471,-0.787692,-1.255838,-0.074609,0.317623,23.721176
4678,1894,3.040636,8.542512,0.126893,-1.033608,-0.32615,0.100456,23.724117
4688,2025,2.422932,8.190564,0.586579,-0.74423,-0.395164,-0.019718,23.715294
4698,1792,2.090138,7.843405,0.464475,-0.402891,-0.349599,-0.085801,23.724117
4708,1758,2.015918,7.594408,-0.244209,-0.080738,-0.237685,-0.141758,23.709412
4718,1795,2.358289,7.223307,-1.132457,0.144156,-0.14309,-0.229424,23.718235
4728,1805,2.63841,7.103596,-1.891419,0.217433,-0.16121,-0.336276,23.709412
4738,1878,2.626439,7.161057,-2.631228,0.132698,-0.311228,-0.371982,23.709412
4748,1885,2.298434,7.192182,-3.050213,-0.071678,-0.51827,-0.312028,23.721176
4758,1969,1.807622,7.206547,-3.052607,-0.322953,-0.679213,-0.176132,23.724117
4768,2128,1.335965,7.230489,-2.664747,-0.520401,-0.735703,-0.025847,23.718235
4778,2112,0.162806,7.714118,-0.687136,-0.51827,-0.499351,0.115378,23.724117
4788,2242,0.435745,7.656657,-0.59855,-0.142824,0.056224,0.173467,23.735882
4798,2213,1.233014,7.323863,-1.719037,0.003198,0.104187,0.227026,23.724117
4808,2295,2.092532,7.247249,-2.554613,-0.171602,0.139093,0.390634,23.712353
4818,2142,2.889802,7.606379,-2.48997,-0.129501,-0.2169,0.348,23.724117
4828,2020,3.071761,8.075643,-2.329558,0.044766,-0.759418,0.094594,23.724117
4838,2018,2.990358,8.027759,-2.097321,0.12657,-1.10049,-0.021583,23.715294
4848,2064,3.454833,8.032547,-1.678335,0.266995,-1.245179,-0.123372,23.73
4858,1984,3.095703,7.987057,-1.532289,0.467908,-1.28808,-0.277121,23.718235
4868,2107,2.487576,7.702147,-1.90339,0.545982,-1.246511,-0.420211,23.724117
4878,2149,1.96564,7.52737,-2.466028,0.506279,-1.109283,-0.476435,23.727058
4888,1998,1.702277,7.57286,-2.918532,0.326949,-0.957133,-0.441262,23.724117
4898,1987,1.84593,7.821857,-3.320758,0.013856,-0.731706,-0.307498,23.738823
4908,2058,1.939303,8.348581,-3.46441,-0.370116,-0.405023,-0.146288,23.727058
4918,1805,1.821988,9.153033,-3.205836,-0.710922,-0.023449,-0.036772,23.727058
4928,2029,1.592144,10.146626,-2.952051,-0.881991,0.326949,-0.046631,23.721176
4938,4095,1.479617,11.113884,-2.839523,-0.815109,0.556374,-0.135629,23.735882
4948,4095,1.407791,11.743559,-2.908955,-0.571562,0.561436,-0.206242,23.750587
4958,4078,1.493982,11.848905,-3.339911,-0.324285,0.406355,-0.206775,23.741764
4968,1465,1.769315,11.494562,-3.524265,-0.172401,0.272058,-0.181461,23.732941
4978,1979,1.84593,11.137826,-3.351882,-0.044499,0.238217,-0.154015,23.738823
4988,2084,1.728614,10.740389,-3.119645,0.063152,0.318423,-0.084469,23.738823
4998,2121,1.932121,10.546458,-2.851494,0.180129,0.39623,-0.001599,23.727058
5008,2202,2.537854,10.666168,-2.851494,0.254205,0.372248,0.037305,23.73
5018,2107,3.380613,10.852917,-3.169923,0.209173,0.278453,-0.041302,23.721176
5028,2119,3.734955,11.20247,-3.5099,0.074077,0.146821,-0.24328,23.735882
5038,2219,3.177106,11.520899,-3.617639,-0.055424,0.043167,-0.444193,23.724117
5048,2281,2.231396,11.5616,-3.371036,-0.127902,-0.031709,-0.570496,23.715294
5058,2294,1.386243,11.439496,-2.985569,-0.191853,-0.042634,-0.617127,23.732941
5068,2380,0.651223,11.513716,-2.616863,-0.272591,-0.000533,-0.588083,23.724117
5078,2402,0.112527,11.736377,-2.185906,-0.355727,0.094328,-0.498551,23.73
5088,2454,-0.09098,11.73877,-1.759738,-0.36079,0.19585,-0.382374,23.741764
5098,2490,-0.055067,11.575965,-1.338359,-0.288312,0.286181,-0.283783,23.753529
5108,2448,0.052672,11.310209,-0.969652,-0.151084,0.34347,-0.207841,23.738823
5118,2546,0.1652,10.888829,-0.804452,0.019185,0.388502,-0.138294,23.753529
5128,2607,0.301669,10.469844,-0.68953,0.180928,0.46551,-0.061286,23.741764
5138,2608,0.474052,9.988609,-0.574608,0.315225,0.540652,0.04743,23.75647
5148,2717,0.696713,9.483433,-0.407014,0.404757,0.561703,0.165473,23.738823
5158,2815,0.972046,9.0429,-0.208296,0.44739,0.472971,0.215302,23.741764
5168,2768,1.228225,8.774749,-0.052672,0.422876,0.28698,0.127369,23.73
5178,2736,1.417367,8.825027,-0.031125,0.380242,0.072211,-0.089531,23.747646
5188,2764,1.314417,9.100361,-0.155623,0.332545,-0.129501,-0.375712,23.735882
5198,2672,0.828394,9.323022,-0.433351,0.251008,-0.276322,-0.634447,23.732941
5208,2506,0.191536,9.536105,-0.816423,0.129501,-0.304833,-0.762083,23.744705
5218,2399,-0.227449,9.739613,-1.108515,-0.007994,-0.209706,-0.742897,23.75647
5228,2299,-0.37589,9.921572,-1.288081,-0.141225,-0.006395,-0.622989,23.724117
5238,2190,-0.414197,10.108319,-1.45328,-0.270726,0.281917,-0.447923,23.73
5248,2118,-0.383072,10.271125,-1.527501,-0.382374,0.646704,-0.223562,23.741764
5258,2111,-0.251391,10.115502,-1.493982,-0.427139,1.005097,0.019718,23.738823
5268,2047,-0.186748,9.933543,-1.338359,-0.429804,1.286481,0.218499,23.744705
5278,2065,-0.186748,9.935937,-1.199495,-0.401293,1.447158,0.332545,23.750587
5288,1996,-0.148441,9.907207,-1.149217,-0.354395,1.480199,0.372248,23.741764
5298,2003,0.083797,9.756371,-1.197101,-0.302435,1.419712,0.357326,23.744705
5308,2005,0.387861,9.555259,-1.312023,-0.260867,1.290744,0.294175,23.727058
5318,2002,0.572214,9.325416,-1.474828,-0.205176,1.121807,0.204643,23.73
5328,2007,0.658405,9.222465,-1.584962,-0.1303,0.943544,0.114579,23.727058
5338,1989,0.818817,9.074024,-1.613692,-0.073011,0.80072,0.071945,23.732941
5348,1977,1.288081,8.755595,-1.489193,-0.024515,0.685075,0.065283,23.73
5358,1991,1.764527,8.418014,-1.477222,0.028511,0.618726,0.027979,23.747646
5368,1986,1.893813,8.14268,-1.575385,0.074609,0.625654,0.004796,23.744705
5378,1950,1.678335,7.752425,-1.594538,0.095926,0.708524,0.052493,23.753529
5388,1991,1.314417,7.433996,-1.601721,0.089531,0.815109,0.126037,23.75647
5398,1951,1.034295,7.240066,-1.42455,0.072744,0.918496,0.197182,23.753529
5408,1933,0.775721,7.082048,-1.206678,0.097259,0.959265,0.251008,23.771177
5418,1958,0.799663,7.04853,-1.115698,0.154548,0.898245,0.263531,23.75647
5428,1906,1.029507,7.201759,-1.465251,0.232622,0.719715,0.240882,23.744705
5438,1863,1.362301,7.311892,-2.003947,0.277654,0.484695,0.164407,23.759411
5448,1925,1.70946,7.271191,-2.262521,0.236352,0.252873,0.059688,23.747646
5458,1904,1.841141,7.285556,-2.291251,0.172934,0.083669,-0.021583,23.750587
5468,1935,1.853112,7.462727,-2.315193,0.096726,0.000533,-0.042368,23.741764
5478,1894,1.568202,7.45315,-2.116474,0.026113,-0.050894,-0.018652,23.75647
5488,1870,1.244985,7.513005,-1.881842,-0.014389,-0.090597,0.051427,23.744705
5498,1903,1.053449,7.721301,-1.721431,-0.074609,-0.116711,0.131632,23.750587
5508,1904,0.869095,8.018182,-1.73819,-0.142557,-0.121507,0.174,23.759411
5518,1966,0.699107,8.504205,-1.922544,-0.204377,-0.088466,0.20944,23.750587
5528,2027,0.423774,8.935161,-2.03986,-0.245412,-0.033041,0.261666,23.753529
5538,2083,0.268151,9.346964,-2.200271,-0.298172,0.015455,0.314159,23.750587
5548,2107,0.225055,9.763555,-2.355895,-0.381041,0.047164,0.367452,23.744705
5558,2160,0.371101,10.125079,-2.494758,-0.458049,0.089531,0.423409,23.732941
5568,2181,0.656011,10.515334,-2.566584,-0.511874,0.131899,0.486294,23.753529
5578,1995,1.134852,10.81461,-2.437297,-0.526263,0.132965,0.535057,23.765295
5588,1894,1.582567,11.042058,-2.336741,-0.516404,0.078606,0.550511,23.774118
5598,1856,1.996764,11.216835,-2.243367,-0.47004,-0.026113,0.533458,23.744705
5608,1807,2.293645,11.317391,-2.13084,-0.386104,-0.158812,0.499617,23.744705
5618,1821,2.379837,11.33894,-1.891419,-0.266196,-0.293908,0.475369,23.750587
5628,1849,2.458845,11.410766,-1.798046,-0.195583,-0.41275,0.44366,23.753529
5638,1807,2.647987,11.714828,-2.116474,-0.223296,-0.510542,0.373314,23.759411
5648,1841,2.794033,12.169727,-2.6839,-0.321354,-0.561969,0.288579,23.762352
5658,1843,2.887407,12.454638,-2.930503,-0.468441,-0.566499,0.219032,23.759411
5668,1850,2.810793,12.617443,-2.63841,-0.649369,-0.565167,0.197449,23.759411
5678,1741,1.924938,14.209587,-1.098939,-0.831363,-0.710922,0.417014,23.765295
5688,1394,2.748544,14.913483,0.778116,-0.639776,-1.077574,0.768478,23.759411
5698,3005,3.450045,13.596671,1.649605,-0.126037,-1.371216,1.074643,23.750587
5708,4095,3.715801,11.326968,1.604115,0.358392,-1.402126,1.29634,23.73
5718,4095,3.679888,9.598354,0.885855,0.695734,-1.216401,1.393599,23.762352
5728,1534,3.564966,8.200141,0.071826,0.838291,-0.908104,1.362423,23.744705
5738,1456,3.603274,7.431602,-0.670376,0.801519,-0.543051,1.180962,23.753529
5748,1744,3.708618,7.350199,-1.197101,0.594478,-0.161476,0.949406,23.747646
5758,1712,3.976769,7.910442,-1.323994,0.205709,0.167072,0.768478,23.765295
5768,1714,4.335899,8.60955,-1.012747,-0.248077,0.341072,0.674417,23.744705
5778,1701,4.752491,9.358934,-0.502782,-0.543051,0.278986,0.640576,23.741764
5788,1706,5.190629,9.916783,-0.023942,-0.576891,-0.022116,0.614462,23.75647
5798,1719,5.573701,10.125079,0.416591,-0.440462,-0.448456,0.553443,23.759411
5808,1727,5.635951,10.072407,0.565032,-0.316557,-0.83083,0.432735,23.741764
5818,1746,5.3678,9.921572,0.328006,-0.282184,-1.104487,0.26593,23.759411
5828,1796,4.900931,9.643845,-0.251391,-0.2169,-1.207342,0.032775,23.753529
5838,1818,4.230555,9.804255,-0.988805,-0.140159,-1.119942,-0.217167,23.762352
5848,1867,3.359065,10.129868,-1.556231,-0.178796,-0.926757,-0.404224,23.75647
5858,1937,2.487576,10.247183,-1.752556,-0.298704,-0.727176,-0.496686,23.750587
5868,1967,1.78368,10.043676,-1.757344,-0.394897,-0.559305,-0.492156,23.75647
5878,2032,1.369483,9.715671,-1.584962,-0.413816,-0.43007,-0.398361,23.747646
5888,2103,1.264138,9.289502,-1.357512,-0.381308,-0.312028,-0.229957,23.759411
5898,2141,1.431733,8.820239,-1.175553,-0.308031,-0.178796,-0.034374,23.762352
5908,2195,1.805228,8.350976,-1.120486,-0.211305,-0.020784,0.1311,23.768236
5918,2219,2.214637,7.941567,-1.177947,-0.096459,0.154282,0.217433,23.75647
5928,2219,2.583344,7.635109,-1.256956,0.026646,0.316291,0.214769,23.750587
5938,2258,2.817975,7.410054,-1.414973,0.141492,0.431136,0.153216,23.750587
5948,2251,2.973598,7.237672,-1.58975,0.219565,0.453786,0.078074,23.771177
5958,2158,3.040636,7.010222,-1.733402,0.249675,0.36159,0.011991,23.75647
5968,2064,2.999935,6.722919,-1.831564,0.227559,0.201179,-0.031709,23.747646
5978,1897,2.901772,6.394913,-1.84593,0.158545,0.029044,-0.061553,23.771177
5988,1814,2.717419,6.145916,-1.82917,0.062619,-0.113513,-0.106319,23.768236
5998,1700,2.466028,6.081272,-1.80044,-0.043433,-0.204643,-0.174799,23.768236
6008,1598,2.20506,6.198588,-1.798046,-0.133764,-0.240349,-0.253939,23.762352
6018,1562,1.924938,6.500257,-1.790863,-0.181461,-0.22143,-0.318423,23.759411
6028,1589,1.759738,6.909666,-1.924938,-0.195583,-0.139626,-0.359991,23.759411
6038,1577,1.623269,7.347805,-2.035071,-0.177997,0.001332,-0.374646,23.768236
6048,1535,1.563414,7.718906,-2.013524,-0.118576,0.154815,-0.355194,23.765295
6058,1562,1.596933,7.939173,-1.94888,-0.020784,0.288579,-0.29524,23.77706
6068,1578,1.850718,7.953538,-1.951274,0.075142,0.383173,-0.214769,23.785883
6078,1588,2.226608,7.872135,-1.996764,0.138827,0.448989,-0.160943,23.75647
6088,1610,2.602497,7.848193,-2.073379,0.148153,0.490557,-0.142291,23.750587
6098,1632,2.932897,7.924808,-2.104503,0.10472,0.500417,-0.139093,23.753529
6108,1616,3.213019,8.118738,-2.018312,0.029044,0.466842,-0.135896,23.762352
6118,1623,3.476381,8.374918,-1.908179,-0.053825,0.396763,-0.135363,23.77706
6128,1620,3.706224,8.698134,-1.850718,-0.111648,0.306698,-0.147354,23.785883
6138,1665,3.876213,9.045294,-1.857901,-0.123905,0.220364,-0.175865,23.771177
6148,1661,3.971981,9.406818,-1.886631,-0.086867,0.151084,-0.213436,23.759411
6158,1645,3.938462,9.722853,-1.924938,-0.010925,0.100723,-0.243813,23.771177
6168,1646,3.842694,9.993398,-2.025495,0.071412,0.066083,-0.254738,23.759411
6178,1658,3.801992,10.175357,-2.245761,0.126037,0.054625,-0.259268,23.77706
6188,1664,3.679888,10.228029,-2.537854,0.155348,0.053292,-0.275789,23.780001
6198,1666,3.459621,10.163386,-2.748544,0.165207,0.047697,-0.292842,23.768236
6208,1712,3.184288,9.988609,-2.827552,0.142824,0.028778,-0.296839,23.774118
6218,1739,2.930503,9.734824,-2.841918,0.088466,0.01279,-0.290444,23.750587
6228,1731,2.731784,9.516952,-2.782062,0.038904,0.015988,-0.285115,23.782942
6238,1766,2.600103,9.440337,-2.636016,0.008527,0.037305,-0.276855,23.774118
6248,1947,2.56419,9.727641,-2.389413,-0.021051,0.059421,-0.262998,23.768236
6258,1969,2.753332,10.644621,-2.030283,-0.112714,0.042101,-0.246478,23.780001
6268,2042,3.181894,11.920731,-2.078167,-0.266995,-0.025047,-0.253139,23.788824
6278,2079,3.567361,13.13459,-2.432509,-0.276055,-0.098591,-0.294974,23.77706
6288,2030,3.718195,13.572729,-2.425326,-0.092196,-0.12204,-0.346135,23.768236
6298,1995,3.574543,12.943054,-1.886631,0.102855,-0.097259,-0.37811,23.768236
6308,1934,3.169923,11.748347,-1.161188,0.16121,-0.068214,-0.417547,23.759411
6318,1808,2.597709,10.943896,-0.658405,0.085268,-0.10392,-0.450322,23.771177
6328,1810,2.025495,10.613496,-0.588974,-0.074077,-0.192386,-0.434867,23.765295
6338,1825,1.503559,10.400413,-0.835576,-0.19958,-0.248876,-0.372781,23.785883
6348,1808,0.993594,10.084377,-1.015141,-0.222763,-0.220364,-0.309096,23.780001
6358,1891,0.577003,9.715671,-0.799663,-0.252073,-0.146554,-0.270193,23.782942
6368,1911,0.21069,9.545682,-0.347159,-0.367185,-0.087133,-0.244613,23.768236
6378,1947,-0.009577,9.713276,0.177171,-0.566499,-0.06102,-0.20411,23.762352
6388,2005,-0.004788,10.132261,0.574608,-0.779669,-0.036772,-0.145489,23.765295
6398,1891,0.081403,10.620679,1.173159,-0.862539,0.00373,-0.095394,23.753529
6408,1674,0.241814,11.291056,1.405396,-0.701596,0.075675,-0.053559,23.765295
6418,3147,0.483629,11.86327,1.596933,-0.355461,0.231822,-0.011458,23.759411
6428,4095,0.857124,12.258312,1.68073,0.052493,0.438597,0.010925,23.768236
6438,4095,1.309628,12.406754,1.527501,0.437265,0.67868,0.010925,23.765295
6448,2246,1.742979,12.332533,1.079785,0.786331,0.948873,-0.001865,23.768236
6458,1662,2.059013,12.174516,0.440533,1.104221,1.202279,-0.012524,23.765295
6468,2095,2.293645,11.927913,-0.390255,1.377611,1.39653,-0.012257,23.768236
6478,2064,2.451663,11.475409,-1.197101,1.538288,1.50498,0.005862,23.771177
6488,2076,2.616863,10.721235,-1.900996,1.567066,1.508444,0.035173,23.765295
6498,2070,2.961627,9.672575,-2.738967,1.442894,1.306199,0.05196,23.762352
6508,2045,3.246537,8.535329,-3.196259,1.125271,0.953936,0.079672,23.771177
6518,2057,3.205836,7.501034,-2.837129,0.658162,0.624322,0.147887,23.774118
6528,2129,3.011906,6.806715,-2.197877,0.174266,0.374646,0.213703,23.771177
6538,2160,2.779668,6.574478,-1.728614,-0.214769,0.187856,0.240616,23.782942
6548,2148,2.506729,6.816292,-1.572991,-0.427672,0.04823,0.225694,23.765295
6558,2147,2.255338,7.395689,-1.666364,-0.449522,-0.040236,0.190521,23.774118
6568,2194,1.970428,7.936779,-1.707066,-0.336009,-0.06475,0.167871,23.765295
6578,2224,1.731008,8.128315,-1.575385,-0.172668,-0.024248,0.167871,23.782942
6588,2218,1.58975,7.874529,-1.391031,-0.038371,0.063685,0.183593,23.768236
6598,2243,1.551443,7.40766,-1.125275,0.094328,0.155881,0.195583,23.768236
6608,2367,1.568202,6.967127,-0.988805,0.223562,0.232888,0.20864,23.753529
6618,2403,1.668759,6.634333,-1.149217,0.331479,0.286181,0.219299,23.75647
6628,2439,1.831564,6.449979,-1.56102,0.388236,0.293375,0.223562,23.77706
6638,2493,2.020706,6.38773,-2.147599,0.369051,0.253939,0.215035,23.774118
6648,2559,2.185906,6.356606,-2.669535,0.251008,0.192919,0.207041,23.780001
6658,2559,2.305616,6.270414,-2.856283,0.080738,0.124438,0.192119,23.759411
6668,2505,2.27928,6.186617,-2.679112,-0.103654,0.070613,0.176132,23.77706
6678,2469,2.176329,6.224925,-2.286463,-0.279519,0.022116,0.163608,23.77706
6688,2336,1.999158,6.423643,-1.946486,-0.43007,-0.031443,0.14842,23.759411
6698,2154,1.764527,6.773197,-1.826776,-0.527596,-0.084469,0.122306,23.782942
6708,2034,1.534683,7.273585,-1.877054,-0.560371,-0.118842,0.097792,23.765295
6718,1948,1.319205,7.881712,-1.989582,-0.53559,-0.112447,0.10019,23.780001
6728,1840,1.228225,8.480263,-2.248155,-0.482031,-0.060487,0.137228,23.780001
6738,1846,1.290475,8.791509,-2.413355,-0.388769,0.053825,0.166273,23.774118
6748,1823,1.386243,8.918402,-2.336741,-0.253939,0.194518,0.169737,23.77706
6758,1828,1.606509,9.0429,-2.212242,-0.135363,0.315492,0.166806,23.788824
6768,1834,1.99437,9.212888,-2.209848,-0.050894,0.390368,0.167871,23.780001
6778,1765,2.475605,9.378088,-2.37026,0.020251,0.403424,0.164674,23.785883
6788,1791,2.935291,9.478644,-2.621651,0.080472,0.344802,0.13483,23.782942
6798,1845,3.263297,9.471462,-2.839523,0.106585,0.243813,0.073277,23.780001
6808,1829,3.277662,9.514558,-2.808398,0.037571,0.1311,0.002931,23.765295
6818,1867,3.004723,9.56723,-2.607286,-0.111914,0.004263,-0.044499,23.780001
6828,1867,2.612074,9.643845,-2.377442,-0.26513,-0.124971,-0.058622,23.771177
6838,1851,2.276886,9.847352,-2.252944,-0.356793,-0.225694,-0.0437,23.771177
6848,1889,2.078167,10.201694,-2.173935,-0.370116,-0.26966,-0.00826,23.771177
6858,1901,2.109292,10.740389,-1.929727,-0.323219,-0.268061,0.056224,23.782942
6868,1872,2.408567,11.528081,-1.647211,-0.279786,-0.255804,0.129501,23.788824
6878,1920,3.04303,12.837709,-1.520318,-0.333345,-0.27419,0.202511,23.780001
6888,1925,3.725378,14.097059,-1.558625,-0.391966,-0.345602,0.22676,23.785883
6898,1930,4.431667,14.535198,-1.419762,-0.274456,-0.41275,0.206775,23.780001
6908,1953,4.716578,14.0803,-0.938527,-0.071145,-0.425541,0.165473,23.785883
6918,1967,4.721366,13.043611,-0.270545,0.120708,-0.430603,0.112447,23.782942
6928,2003,4.532224,12.045229,0.201113,0.185191,-0.475103,0.074609,23.774118
6938,2026,4.326323,11.307815,0.275333,0.127902,-0.551577,0.085534,23.75647
6948,2015,4.149151,10.486604,0.035913,0.054358,-0.612864,0.151351,23.771177
6958,2101,3.969586,9.603143,-0.169988,-0.001599,-0.6086,0.236086,23.768236
6968,2164,3.871424,8.942344,-0.234632,-0.104187,-0.536389,0.321087,23.771177
6978,2207,3.811569,8.652645,-0.093374,-0.298704,-0.45272,0.408487,23.788824
6988,2276,3.962404,8.889671,0.126893,-0.557706,-0.42634,0.498551,23.806471
6998,2214,4.242526,9.380483,0.320823,-0.774606,-0.477767,0.565167,23.800589
7008,2096,4.520253,9.94312,0.402226,-0.812444,-0.599807,0.566766,23.782942
7018,1994,4.623203,10.441113,0.481235,-0.66509,-0.747694,0.492423,23.782942
7028,1891,4.520253,10.730812,0.620098,-0.475636,-0.877727,0.362389,23.785883
7038,1854,4.218584,10.812215,0.658405,-0.342671,-0.970989,0.207308,23.812353
7048,1826,3.679888,10.651803,0.543484,-0.253939,-1.010959,0.046098,23.788824
7058,1851,2.971204,10.496181,0.25618,-0.164407,-1.012025,-0.115378,23.785883
7068,1884,2.240973,10.429143,-0.208296,-0.082603,-0.986444,-0.253406,23.782942
7078,1969,1.596933,10.307038,-0.663194,-0.029044,-0.915832,-0.351997,23.771177
7088,1962,1.077391,9.991004,-0.967257,-0.00373,-0.791394,-0.397828,23.791765
7098,1975,0.773327,9.471462,-1.029507,-0.00373,-0.640309,-0.381574,23.794706
7108,1872,0.682347,8.937555,-1.070208,-0.015721,-0.463645,-0.297905,23.794706
7118,1566,0.826,8.516175,-1.173159,-0.026913,-0.277121,-0.172401,23.794706
7128,3018,1.120486,8.248025,-1.338359,-0.024515,-0.10845,-0.05276,23.788824
7138,4095,1.522712,8.09719,-1.606509,0.00826,0.03011,0.024248,23.800589
7148,4095,1.989582,8.049306,-1.941698,0.060487,0.120974,0.05196,23.782942
7158,2091,2.434903,7.953538,-2.281674,0.093262,0.109783,0.044233,23.80353
7168,1565,2.741361,7.699753,-2.363077,0.069547,0.012257,0.036239,23.806471
7178,1928,2.880225,7.319075,-2.322376,-0.009593,-0.115645,0.040769,23.80353
7188,1868,2.813187,6.88333,-2.063802,-0.124438,-0.219299,0.045565,23.797647
7198,1907,2.602497,6.567295,-1.821988,-0.244613,-0.292576,0.028778,23.800589
7208,1919,2.286463,6.457162,-1.632846,-0.337874,-0.354129,-0.017054,23.791765
7218,1980,1.912967,6.550536,-1.577779,-0.386371,-0.401293,-0.077541,23.77706
7228,1940,1.651999,6.749255,-1.671153,-0.385571,-0.416214,-0.128968,23.791765
7238,2003,1.369483,6.876147,-1.750161,-0.346135,-0.367185,-0.165473,23.797647
7248,2004,1.115698,7.043741,-1.810017,-0.28698,-0.289911,-0.172401,23.782942
7258,2027,0.984017,7.230489,-1.953669,-0.227292,-0.189455,-0.136962,23.788824
7268,2110,1.04866,7.326257,-2.097321,-0.164674,-0.06102,-0.065816,23.791765
7278,2128,1.271321,7.290344,-2.281674,-0.10392,0.087933,0.010392,23.80353
7288,2160,1.58975,7.146692,-2.310405,-0.062885,0.227292,0.069014,23.80353
7298,2160,1.956063,7.067683,-2.1883,-0.064217,0.318423,0.108184,23.800589
7308,2224,2.329558,7.137115,-1.987187,-0.12124,0.339207,0.124971,23.812353
7318,2275,2.676718,7.280767,-1.726219,-0.209706,0.297905,0.12124,23.812353
7328,2334,2.964022,7.517793,-1.441309,-0.300037,0.218766,0.103121,23.815294
7338,2432,3.172317,7.917625,-1.189918,-0.377577,0.122306,0.068747,23.809412
7348,2455,3.39019,8.566454,-1.108515,-0.428472,0.011191,0.027446,23.800589
7358,2510,3.643975,9.318233,-1.216254,-0.423675,-0.087666,-0.020251,23.80353
7368,2531,3.751714,10.072407,-1.319205,-0.333877,-0.173734,-0.063951,23.806471
7378,2512,3.890578,10.5704,-1.534683,-0.18679,-0.207841,-0.090064,23.809412
7388,2408,3.952827,10.70687,-1.733402,-0.021051,-0.185724,-0.128435,23.806471
7398,2262,3.813963,10.539276,-1.991976,0.126836,-0.144689,-0.202511,23.791765
7408,2139,3.421314,10.244789,-2.255338,0.198781,-0.126037,-0.282983,23.794706
7418,1968,2.942474,9.967062,-2.437297,0.163874,-0.142291,-0.32242,23.797647
7428,1943,2.53546,9.799467,-2.597709,0.04823,-0.150018,-0.313893,23.797647
7438,1856,2.1883,9.859323,-2.652776,-0.083136,-0.122573,-0.284315,23.809412
7448,1795,2.037466,10.395624,-2.5187,-0.214769,-0.060753,-0.250475,23.800589
7458,1794,2.195483,11.36767,-2.413355,-0.380508,0.021317,-0.230757,23.797647
7468,1787,2.382231,12.471396,-2.240973,-0.530527,0.081271,-0.237951,23.797647
7478,1749,2.614468,13.218388,-1.848324,-0.577957,0.087666,-0.255538,23.794706
7488,1743,2.743755,13.220781,-1.343147,-0.538787,0.085002,-0.272325,23.794706
7498,1755,2.707842,12.562376,-0.670376,-0.462046,0.090864,-0.30883,23.806471
7508,1795,2.506729,11.832145,-0.153229,-0.431669,0.092462,-0.379709,23.812353
7518,1773,2.152387,11.449073,0.318429,-0.493222,0.071412,-0.452187,23.827059
7528,1770,1.759738,11.324574,0.56982,-0.590481,0.023449,-0.480698,23.800589
7538,1808,1.323994,11.104307,0.699107,-0.587816,-0.013856,-0.461513,23.797647
7548,1776,0.972046,10.623073,0.675165,-0.497485,0.025314,-0.425541,23.785883
7558,1770,0.557849,10.031705,0.85473,-0.388236,0.102322,-0.41355,23.785883
7568,1785,0.162806,9.619903,0.960075,-0.347201,0.190521,-0.410619,23.806471
7578,1793,-0.184354,9.490616,1.206678,-0.384772,0.267795,-0.395963,23.794706
7588,1830,-0.387861,9.753978,1.527501,-0.472704,0.316824,-0.337874,23.812353
7598,1771,-0.471658,10.259154,1.757344,-0.539853,0.347201,-0.224894,23.821177
7608,1775,-0.325611,10.752359,1.982399,-0.48736,0.40076,-0.079139,23.797647
7618,1798,-0.02873,11.190498,2.087744,-0.286714,0.507345,0.06475,23.815294
7628,1791,0.445322,11.535264,2.147599,-0.005862,0.657629,0.17027,23.797647
7638,1791,1.010353,11.822568,2.102109,0.276588,0.828965,0.232622,23.794706
7648,1804,1.632846,11.990162,1.872266,0.55291,0.988576,0.258469,23.797647
7658,1863,2.214637,11.894394,1.417367,0.856943,1.129534,0.250475,23.800589
7668,1929,2.662352,11.542446,0.761356,1.149253,1.24438,0.209706,23.80353
7678,1963,2.906561,10.891224,0.098162,1.339773,1.319789,0.139093,23.794706
7688,1931,2.94008,10.132261,-0.519542,1.388802,1.333112,0.04743,23.806471
7698,1876,2.762909,9.394848,-1.027112,1.301403,1.276888,-0.038104,23.809412
7708,1774,2.434903,8.789114,-1.37906,1.098891,1.150052,-0.082337,23.83
7718,1587,2.11408,8.336611,-1.66397,0.827632,0.976052,-0.076475,23.806471
7728,1571,1.853112,8.037335,-1.924938,0.523066,0.791127,-0.022649,23.809412
7738,1573,1.678335,7.915231,-2.140416,0.211038,0.631783,0.061553,23.80353
7748,1535,1.649605,7.852982,-2.166753,-0.079406,0.517737,0.139893,23.815294
7758,1535,1.675941,7.879318,-2.018312,-0.318689,0.451387,0.190521,23.815294
7768,1533,1.719037,7.900866,-1.721431,-0.483629,0.427406,0.210505,23.806471
7778,1522,1.750161,7.872135,-1.268927,-0.555841,0.426606,0.207041,23.809412
7788,1587,1.73819,7.762002,-0.818817,-0.536123,0.427139,0.193985,23.815294
7798,1584,1.692701,7.575254,-0.380678,-0.436732,0.423409,0.180662,23.797647
7808,1299,1.659182,7.383718,-0.059855,-0.293375,0.409819,0.17773,23.806471
7818,1585,1.649605,7.180211,0.138864,-0.135096,0.389035,0.180662,23.800589
7828,4095,1.61848,7.019799,0.148441,0.01732,0.362922,0.180129,23.800589
7838,4095,1.642422,6.974309,-0.055067,0.156147,0.347201,0.166273,23.797647
7848,2637,1.654393,6.979098,-0.368707,0.270726,0.353063,0.138294,23.815294
7858,752,1.596933,7.034164,-0.775721,0.359724,0.373047,0.104453,23.809412
7868,1459,1.51553,7.120356,-1.165976,0.419678,0.390101,0.07381,23.80353
7878,1491,1.426944,7.10599,-1.431733,0.420478,0.395963,0.060487,23.806471
7888,1482,1.328782,7.065289,-1.525106,0.322953,0.379443,0.071412,23.806471
7898,1466,1.271321,7.03177,-1.455675,0.136162,0.323752,0.092729,23.797647
7908,1491,1.271321,7.161057,-1.292869,-0.112181,0.229691,0.118043,23.788824
7918,1535,1.338359,7.560889,-1.055843,-0.372248,0.097792,0.153749,23.806471
7928,1535,1.460463,8.231265,-0.840365,-0.576625,-0.063418,0.202511,23.815294
7938,1571,1.644817,9.040505,-0.672771,-0.665623,-0.227026,0.245145,23.806471
7948,1633,1.893813,9.873688,-0.617704,-0.604603,-0.345602,0.268061,23.794706
7958,1697,2.102109,10.560823,-0.670376,-0.386104,-0.37811,0.263798,23.812353
7968,1740,2.221819,10.958261,-0.804452,-0.066616,-0.316824,0.242747,23.794706
7978,1776,2.286463,10.919954,-0.878672,0.259534,-0.18679,0.218766,23.785883
7988,1851,2.269703,10.651803,-0.921768,0.508677,-0.049029,0.197715,23.797647
7998,1911,2.224213,10.419566,-1.118092,0.63125,0.046631,0.187323,23.809412
8008,1965,2.154782,10.374076,-1.501164,0.641109,0.079672,0.191587,23.806471
8018,2083,2.13084,10.448297,-2.037466,0.588349,0.055158,0.210239,23.809412
8028,2139,2.140416,10.55843,-2.585738,0.497219,-0.009326,0.240616,23.794706
8038,2235,2.296039,10.67814,-3.004723,0.342937,-0.108184,0.272858,23.791765
8048,2320,2.506729,11.006145,-2.937685,0.100989,-0.221963,0.309363,23.80353
8058,2388,2.779668,11.712435,-2.466028,-0.223562,-0.355194,0.345602,23.812353
8068,2423,3.263297,12.497733,-2.149993,-0.495887,-0.503881,0.372515,23.818235
8078,2403,3.720589,12.782643,-1.66397,-0.548113,-0.582753,0.364254,23.815294
8088,2289,4.060566,12.492945,-1.113304,-0.397029,-0.573427,0.329081,23.809412
8098,2170,4.197036,11.791444,-0.476446,-0.178263,-0.49109,0.26593,23.806471
8108,2019,4.1707,11.133038,0.050278,-0.00373,-0.399694,0.194518,23.812353
8118,1925,4.096479,10.79785,0.337582,0.064484,-0.358126,0.148686,23.797647
8128,1899,3.993528,10.500969,0.325611,0.088732,-0.365853,0.152949,23.806471
8138,1890,3.895366,10.000581,0.098162,0.147887,-0.385571,0.194784,23.80353
8148,1885,3.799598,9.263166,-0.155623,0.201446,-0.371982,0.255538,23.815294
8158,1905,3.70383,8.511387,-0.308852,0.191587,-0.318156,0.327749,23.824118
8168,1949,3.65834,7.97748,-0.306458,0.096459,-0.257936,0.399694,23.821177
8178,1986,3.787627,7.754819,-0.232238,-0.057289,-0.215302,0.469773,23.818235
8188,2007,4.149151,7.967903,0.02873,-0.251274,-0.223029,0.53932,23.809412
8198,1991,4.635174,8.437167,0.308852,-0.450855,-0.309363,0.587283,23.815294
8208,2000,5.178658,8.966286,0.545878,-0.590747,-0.472704,0.574227,23.806471
8218,2019,5.60722,9.43076,0.711078,-0.59208,-0.679746,0.470839,23.80353
8228,2021,5.868188,9.818622,0.670376,-0.46098,-0.899311,0.292043,23.80353
8238,2042,5.786786,10.079589,0.507571,-0.305899,-1.059455,0.064217,23.809412
8248,2058,5.29358,10.25676,0.23942,-0.219565,-1.162043,-0.16041,23.812353
8258,2033,4.58729,10.362105,-0.124498,-0.216634,-1.218799,-0.33068,23.806471
8268,2032,3.768473,10.400413,-0.509965,-0.272325,-1.251308,-0.435666,23.797647
8278,2073,3.004723,10.323798,-0.876278,-0.347734,-1.273158,-0.471106,23.812353
8288,2112,2.413355,10.113108,-1.144428,-0.418346,-1.267828,-0.438864,23.791765
8298,2111,2.042254,9.801862,-1.312023,-0.46924,-1.200413,-0.348533,23.80353
8308,2139,1.94888,9.428367,-1.419762,-0.491357,-1.054392,-0.231023,23.806471
8318,2195,2.044648,9.064447,-1.474828,-0.47457,-0.841755,-0.119375,23.824118
8328,2256,2.231396,8.777143,-1.467646,-0.429538,-0.611798,-0.041035,23.80353
8338,2353,2.430115,8.549694,-1.39582,-0.366919,-0.427139,0.002931,23.80353
8348,2304,2.585738,8.386889,-1.283292,-0.307498,-0.319222,0.032508,23.797647
8358,2298,2.726996,8.228871,-1.199495,-0.261666,-0.298971,0.051161,23.812353
8368,2149,2.834735,8.001422,-1.199495,-0.223296,-0.342671,0.060753,23.800589
8378,2032,2.877831,7.699753,-1.235408,-0.185991,-0.422077,0.048763,23.827059
8388,2023,2.82037,7.352593,-1.321599,-0.149219,-0.511608,0.011191,23.838823
8398,2035,2.621651,6.983886,-1.412579,-0.130034,-0.598475,-0.049296,23.818235
8408,1989,2.391808,6.715736,-1.477222,-0.144689,-0.672018,-0.120441,23.821177
8418,1999,2.118869,6.53617,-1.527501,-0.194784,-0.721314,-0.186524,23.806471
8428,2013,1.843535,6.476315,-1.587356,-0.262466,-0.742364,-0.23875,23.812353
8438,1986,1.58975,6.562507,-1.608904,-0.33441,-0.730107,-0.262998,23.815294
8448,2033,1.410185,6.696582,-1.640028,-0.392233,-0.675482,-0.252873,23.809412
8458,2021,1.323994,6.868965,-1.620875,-0.42181,-0.578224,-0.212371,23.812353
8468,1631,1.321599,6.947973,-1.501164,-0.422876,-0.450588,-0.162009,23.806471
8478,2559,1.376666,6.959944,-1.319205,-0.395963,-0.312028,-0.123639,23.806471
8488,4095,1.484405,6.971915,-1.156399,-0.344536,-0.180928,-0.094328,23.800589
8498,4095,1.616086,7.024588,-0.998382,-0.289645,-0.075675,-0.066349,23.818235
8508,2491,1.838747,7.132327,-0.859518,-0.2606,-0.013856,-0.033041,23.812353
8518,1470,2.176329,7.417237,-0.723049,-0.279519,-0.002665,0.003464,23.815294
8528,1958,2.597709,7.8865,-0.651223,-0.329614,-0.039436,0.034374,23.80353
8538,1904,3.057395,8.497022,-0.696713,-0.366652,-0.099124,0.041302,23.812353
8548,1899,3.488352,9.112331,-0.768539,-0.354129,-0.158812,0.019718,23.806471
8558,1888,3.885789,9.710882,-0.916979,-0.279253,-0.202245,-0.036772,23.800589
8568,1867,4.134786,10.232818,-1.130063,-0.160943,-0.224361,-0.130567,23.815294
8578,1920,4.149151,10.532093,-1.374272,-0.014123,-0.229424,-0.245412,23.80353
8588,1861,3.866636,10.577583,-1.63524,0.130034,-0.236352,-0.357859,23.815294
8598,1930,3.440468,10.515334,-1.90339,0.196116,-0.254738,-0.432469,23.809412
8608,1967,2.952051,10.488997,-2.240973,0.156413,-0.277121,-0.44739,23.818235
8618,1963,2.485181,10.46745,-2.592921,0.053825,-0.287513,-0.405822,23.80353
8628,2002,2.106898,10.479421,-2.829947,-0.071412,-0.276055,-0.333078,23.797647
8638,2025,1.886631,10.668563,-2.877831,-0.23502,-0.236352,-0.260067,23.791765
8648,2094,1.922544,11.240777,-2.645593,-0.475636,-0.185991,-0.206775,23.80353
8658,2087,2.090138,12.081141,-2.255338,-0.757819,-0.156946,-0.17853,23.821177
8668,2149,2.312799,12.907142,-1.793257,-0.967525,-0.148153,-0.183859,23.818235
8678,2209,2.425326,13.256695,-1.197101,-1.005629,-0.120708,-0.22223,23.824118
8688,2291,2.315193,12.995727,-0.459687,-0.875063,-0.056757,-0.283783,23.827059
8698,2330,2.044648,12.363658,0.198719,-0.706126,0.020251,-0.367718,23.827059
8708,2387,1.678335,11.827356,0.80924,-0.618459,0.103387,-0.463911,23.827059
8718,2416,1.197101,11.542446,1.276109,-0.614196,0.139626,-0.541985,23.827059
8728,2362,0.713472,11.355699,1.529895,-0.614462,0.157746,-0.563302,23.824118
8738,2268,0.306458,11.051635,1.620875,-0.524665,0.211838,-0.528662,23.806471
8748,2173,-0.040701,10.548853,1.668759,-0.34347,0.324818,-0.463112,23.818235
8758,2016,-0.275333,9.94312,1.731008,-0.147354,0.487093,-0.390101,23.821177
8768,1893,-0.383072,9.387665,1.893813,-0.015988,0.65683,-0.31709,23.827059
8778,1796,-0.383072,9.076419,2.173935,0.019185,0.790861,-0.239283,23.835882
8788,1721,-0.320823,9.205706,2.549825,-0.033574,0.859075,-0.139093,23.832941
8798,1695,-0.141258,9.655815,2.913743,-0.120175,0.867335,-0.015988,23.844706
8808,1653,0.198719,10.323798,3.004723,-0.108717,0.859342,0.118842,23.827059
8818,1619,0.64404,11.034876,2.901772,0.090331,0.883323,0.234487,23.821177
8828,1623,1.156399,11.676521,2.600103,0.455917,0.937948,0.319755,23.827059
8838,1674,1.63524,12.076353,2.164358,0.850282,0.997369,0.370383,23.80353
8848,1684,2.066196,12.059594,1.68073,1.176432,1.041069,0.382107,23.824118
8858,1648,2.339135,11.599907,1.000776,1.385605,1.072778,0.350931,23.818235
8868,1643,2.44448,11.034876,0.246603,1.482597,1.103954,0.273391,23.818235
8878,1652,2.348712,10.584765,-0.584185,1.466609,1.147121,0.17027,23.812353
8888,1669,2.111686,10.158598,-1.30484,1.356028,1.202545,0.085002,23.83
8898,1619,1.776498,9.68694,-1.752556,1.182827,1.239051,0.040236,23.821177
8908,1647,1.407791,9.255983,-1.982399,0.944343,1.215602,0.039703,23.824118
8918,1616,1.067814,8.925584,-2.087744,0.640576,1.125538,0.088998,23.812353
8928,1598,0.893037,8.688558,-2.078167,0.325351,1.006695,0.191587,23.827059
8938,1598,0.840365,8.588001,-1.953669,0.087666,0.905173,0.315225,23.827059
8948,1565,1.012747,8.516175,-1.735796,-0.094594,0.8271,0.449522,23.83
8958,1578,1.309628,8.449138,-1.426944,-0.18306,0.794058,0.549179,23.818235
8968,1637,1.611298,8.339005,-1.118092,-0.177464,0.79992,0.601672,23.83
8978,1718,1.807622,8.152257,-0.742203,-0.09113,0.824968,0.6094,23.827059
8988,1801,1.939303,7.927202,-0.505177,0.053292,0.843354,0.584619,23.827059
8998,1826,2.008735,7.639898,-0.287304,0.226493,0.847351,0.536389,23.815294
9008,1866,1.987187,7.347805,-0.196325,0.401559,0.839623,0.478833,23.832941
9018,1846,1.87466,7.12275,-0.287304,0.540386,0.825767,0.426606,23.83
9028,1671,1.702277,7.005434,-0.502782,0.624322,0.817773,0.386371,23.815294
9038,1595,1.558625,6.971915,-0.811634,0.654165,0.822836,0.360257,23.812353
9048,1535,1.429338,7.012617,-1.170765,0.633914,0.840956,0.334943,23.83
9058,1556,1.369483,7.038953,-1.508347,0.583819,0.871865,0.309896,23.832941
9068,1586,1.359907,7.043741,-1.735796,0.523865,0.917697,0.275789,23.83
9078,1600,1.398214,6.976704,-1.862689,0.46551,0.96193,0.237685,23.83
9088,1619,1.448492,6.914454,-1.719037,0.398361,0.977384,0.207574,23.818235
9098,1625,1.549049,6.840234,-1.482011,0.302435,0.949672,0.202778,23.818235
9108,1628,1.68073,6.76362,-1.170765,0.179862,0.879326,0.212371,23.821177
9118,1623,1.838747,6.864176,-0.912191,0.03917,0.762882,0.220364,23.806471
9128,1235,2.030283,7.292738,-0.816423,-0.108983,0.619792,0.226493,23.815294
9138,2101,2.212242,8.073248,-0.933739,-0.224628,0.482564,0.227559,23.835882
9148,4095,2.413355,9.0429,-1.170765,-0.231023,0.36985,0.229691,23.847647
9158,4095,2.612074,10.007763,-1.39582,-0.087933,0.291776,0.23502,23.83
9168,2192,2.851494,10.668563,-1.493982,0.154282,0.252873,0.245412,23.824118
9178,1119,3.071761,10.896012,-1.49877,0.415415,0.238217,0.246478,23.818235
9188,1743,3.210624,10.769119,-1.656788,0.638178,0.234221,0.220631,23.815294
9198,1775,3.260903,10.369287,-1.877054,0.762083,0.218233,0.174533,23.824118
9208,1789,3.189077,9.969456,-2.212242,0.755421,0.169737,0.1303,23.827059
9218,1776,3.110068,9.753978,-2.600103,0.617926,0.094594,0.117776,23.841764
9228,1776,2.992752,9.739613,-2.911349,0.381308,0.022383,0.156946,23.832941
9238,1847,2.904167,9.916783,-2.985569,0.110848,-0.039436,0.246744,23.812353
9248,1925,2.930503,10.338163,-2.762909,-0.101256,-0.096193,0.348799,23.806471
9258,1907,3.160346,11.135432,-2.224213,-0.240616,-0.166539,0.42261,23.812353
9268,2002,3.49314,12.227188,-1.946486,-0.315492,-0.234487,0.428472,23.806471
9278,2030,3.818752,13.374011,-1.984793,-0.265663,-0.288579,0.394364,23.797647
9288,1994,4.134786,13.850457,-1.891419,-0.086067,-0.267262,0.366386,23.83
9298,2145,4.371812,13.498509,-1.391031,0.153216,-0.2169,0.410086,23.809412
9308,2111,4.630386,12.227188,-0.792481,0.339207,-0.161743,0.463378,23.821177
9319,2171,4.718972,11.022904,-0.483629,0.410352,-0.159345,0.449522,23.83
9329,2219,4.67827,10.261548,-0.488417,0.349599,-0.205443,0.405023,23.838823
9339,2291,4.52983,9.691729,-0.6608,0.170003,-0.260867,0.394098,23.835882
9349,2374,4.355053,9.172187,-0.555455,-0.047963,-0.306432,0.434067,23.827059
9359,2448,4.29041,8.695741,-0.213084,-0.243547,-0.341871,0.518536,23.812353
9369,2477,4.321534,8.331821,0.241814,-0.388236,-0.359458,0.606202,23.818235
9379,2493,4.381389,8.11395,0.703895,-0.448456,-0.382374,0.67868,23.835882
9389,2592,4.503493,8.030152,1.070208,-0.434867,-0.434334,0.733838,23.815294
9399,2441,4.857835,8.145074,1.122881,-0.357593,-0.499351,0.76528,23.818235
9409,2291,5.310339,8.401254,0.938527,-0.260067,-0.49642,0.73517,23.824118
9419,2196,5.631162,8.789114,0.4956,-0.152949,-0.421011,0.621124,23.818235
9429,2093,5.916072,9.222465,-0.098162,-0.031176,-0.306965,0.423409,23.824118
9439,1890,6.009446,9.648633,-0.517148,0.070879,-0.252073,0.18306,23.797647
9449,1903,5.896919,9.933543,-0.653617,0.119375,-0.341338,-0.032775,23.835882
9459,1851,5.609614,10.014946,-0.761356,0.112181,-0.526796,-0.188122,23.832941
9469,1822,5.209783,9.935937,-0.907402,0.084735,-0.697599,-0.295507,23.835882
9479,1787,4.623203,9.856929,-1.376666,0.029844,-0.750092,-0.356527,23.827059
9489,1807,3.890578,9.785102,-1.73819,-0.092995,-0.700263,-0.366919,23.827059
9499,1843,3.220201,9.672575,-1.776498,-0.288845,-0.626986,-0.31789,23.835882
9509,1827,2.765303,9.476251,-1.654393,-0.503614,-0.571562,-0.226227,23.841764
9519,1842,2.604892,9.248801,-1.465251,-0.634447,-0.525997,-0.130567,23.827059
9529,1998,2.621651,9.016563,-1.240196,-0.622456,-0.472704,-0.066083,23.83
9539,1965,2.753332,8.78672,-1.165976,-0.485228,-0.410619,-0.047963,23.827059
9549,1942,2.839523,8.516175,-1.187524,-0.284582,-0.340006,-0.079139,23.841764
9559,1943,2.870648,8.164227,-1.249773,-0.076741,-0.267528,-0.129767,23.83
9569,1838,2.896984,7.788338,-1.419762,0.105519,-0.196116,-0.171868,23.821177
9579,1870,2.937685,7.417237,-1.642422,0.228358,-0.121507,-0.199847,23.818235
9589,1921,2.973598,7.010222,-1.910573,0.285115,-0.0437,-0.218766,23.815294
9599,1958,3.011906,6.59842,-1.987187,0.284315,0.007461,-0.233688,23.815294
9609,1850,3.057395,6.234501,-1.982399,0.241149,0.007461,-0.249142,23.815294
9619,1955,3.124433,5.956774,-1.934515,0.168404,-0.028245,-0.269127,23.832941
9629,2002,3.20823,5.793968,-1.867477,0.073544,-0.093528,-0.29604,23.821177
9639,2094,3.210624,5.808333,-1.805228,-0.044233,-0.189188,-0.327749,23.838823
9649,2272,3.093309,5.920861,-1.790863,-0.159877,-0.306165,-0.349332,23.824118
9659,2230,2.844312,6.014235,-1.788469,-0.233954,-0.43007,-0.351198,23.835882
9669,2047,2.652776,6.107608,-1.731008,-0.269926,-0.522,-0.321087,23.847647
9679,2172,2.492364,6.181829,-1.695095,-0.296839,-0.554775,-0.273657,23.847647
9689,1826,2.339135,6.186617,-1.656788,-0.315225,-0.533724,-0.22596,23.838823
9699,1772,2.272097,6.217742,-1.661576,-0.330147,-0.463645,-0.184925,23.844706
9709,1874,2.269703,6.399701,-1.721431,-0.35706,-0.336009,-0.136962,23.844706
9719,1844,2.363077,6.811504,-1.711854,-0.399161,-0.177198,-0.062885,23.827059
9729,1852,2.669535,7.441179,-1.604115,-0.453786,-0.035972,0.026113,23.818235
9739,1926,3.16274,8.161834,-1.572991,-0.498285,0.050361,0.096726,23.824118
9749,1954,3.713407,8.870518,-1.68073,-0.503614,0.076741,0.111381,23.824118
9759,1867,4.237737,9.562442,-1.963245,-0.447124,0.055424,0.060487,23.835882
9769,1966,4.560954,10.180145,-2.291251,-0.329348,0.001332,-0.038904,23.835882
9779,1657,4.589684,10.58716,-2.470816,-0.174533,-0.098058,-0.149219,23.827059
9789,2288,4.515464,10.714052,-2.56419,-0.052493,-0.210505,-0.236619,23.832941
9799,4095,4.369418,10.651803,-2.461239,-0.002398,-0.29524,-0.277121,23.835882
9809,4095,4.139575,10.527305,-2.384625,-0.029311,-0.327216,-0.267262,23.827059
9819,3327,3.833117,10.400413,-2.437297,-0.094861,-0.314426,-0.224095,23.853529
9829,1439,3.483563,10.287885,-2.60968,-0.159345,-0.290444,-0.171602,23.844706
9839,2106,3.189077,10.244789,-2.719813,-0.207041,-0.27419,-0.121773,23.827059
9849,2114,3.019088,10.242394,-2.619257,-0.247011,-0.258735,-0.067149,23.844706
9859,2095,3.076549,10.326192,-2.104503,-0.295773,-0.248077,-0.005063,23.832941
9869,2217,3.272874,10.654198,-1.537078,-0.371982,-0.263798,0.034907,23.838823
9879,2192,3.497929,11.255142,-1.369483,-0.440995,-0.302968,0.017054,23.832941
9889,2197,3.507505,11.942278,-1.537078,-0.425008,-0.327482,-0.045032,23.838823
9899,2231,3.32794,12.301409,-1.757344,-0.309896,-0.293109,-0.119642,23.838823
9909,2295,2.990358,12.01171,-1.625663,-0.183859,-0.233954,-0.179862,23.835882
9919,2245,2.664747,11.303026,-1.151611,-0.128701,-0.211305,-0.207041,23.847647
9929,2238,2.475605,10.800244,-0.675165,-0.191853,-0.240882,-0.194251,23.85647
9939,2312,2.401384,10.577583,-0.306458,-0.362922,-0.292576,-0.135896,23.835882
9949,2326,2.327164,10.424355,-0.153229,-0.545449,-0.312294,-0.071945,23.844706
9959,2320,2.260126,10.206482,-0.162806,-0.645372,-0.257403,-0.050361,23.83
9969,2416,2.015918,9.97185,-0.057461,-0.605136,-0.158279,-0.088466,23.838823
9979,2515,1.699883,9.765948,0.222661,-0.488692,-0.076475,-0.150285,23.850588
9989,2559,1.484405,9.545682,0.679953,-0.38264,-0.07008,-0.211571,23.841764
9999,2638,1.391031,9.445126,1.187524,-0.325351,-0.157479,-0.260867,23.832941
10009,2726,1.479617,9.533711,1.549049,-0.351198,-0.270726,-0.2614,23.841764
10019,2759,1.517924,9.442732,1.953669,-0.379176,-0.398894,-0.276322,23.832941
10029,2802,1.429338,9.624691,1.872266,-0.390634,-0.488159,-0.322953,23.832941
10039,2781,1.321599,9.952697,1.482011,-0.364521,-0.433534,-0.370649,23.844706
10049,2751,1.151611,10.436325,1.022324,-0.290178,-0.185191,-0.394631,23.838823
10059,2603,1.029507,10.979809,0.691924,-0.195317,0.224361,-0.380775,23.838823
10069,2450,1.04866,11.463438,0.574608,-0.095394,0.72691,-0.33068,23.844706
10079,2335,1.125275,11.729194,0.701501,0.013323,1.244113,-0.249942,23.847647
10089,2273,1.254562,11.722012,0.818817,0.159078,1.706426,-0.140426,23.847647
10099,2122,1.455675,11.640609,0.818817,0.38264,2.056557,-0.004263,23.827059
10109,2096,1.769315,11.616667,0.574608,0.712787,2.230557,0.140426,23.827059
10119,2022,2.217031,11.523293,0.172383,1.088233,2.192453,0.272858,23.835882
10129,2000,2.726996,11.11149,-0.296881,1.358426,1.956101,0.362655,23.841764
10139,2007,3.138798,10.304645,-0.816423,1.380276,1.625155,0.390368,23.838823
10149,1967,3.385401,9.251195,-1.338359,1.174034,1.250775,0.370116,23.838823
10159,1943,3.552995,8.197746,-1.692701,0.849749,0.872931,0.32162,23.832941
10169,1957,3.531447,7.366959,-1.795651,0.488692,0.570496,0.256337,23.821177
10179,1941,3.354277,6.88333,-1.649605,0.154282,0.368518,0.203311,23.83
10189,1936,3.047819,6.708553,-1.412579,-0.094861,0.234487,0.186257,23.844706
10199,1927,2.681506,6.751649,-1.256956,-0.240616,0.132698,0.205976,23.835882
10209,1937,2.384625,6.830657,-1.228225,-0.302435,0.047164,0.248876,23.835882
10219,1997,2.231396,6.833052,-1.216254,-0.293908,0.001066,0.288312,23.844706
10229,2002,2.149993,6.730101,-1.173159,-0.242481,0.00906,0.30883,23.847647
10239,1731,2.111686,6.58166,-1.039083,-0.194251,0.067415,0.311761,23.844706
10249,1731,2.118869,6.394913,-0.876278,-0.172668,0.163608,0.312028,23.832941
10259,1809,2.11408,6.275203,-0.758962,-0.159877,0.288845,0.309363,23.853529
10269,1839,2.030283,6.349423,-0.847547,-0.128701,0.419412,0.298971,23.85647
10279,1775,1.991976,6.610391,-1.000776,-0.085002,0.540386,0.28698,23.841764
10289,1769,2.0231,6.880936,-1.292869,-0.022116,0.643507,0.280585,23.824118
10299,1861,2.06859,7.038953,-1.606509,0.068214,0.729308,0.270193,23.835882
10309,1808,2.097321,7.058106,-1.824382,0.17853,0.773807,0.235553,23.841764
10319,1872,2.15957,7.005434,-1.862689,0.231289,0.75249,0.17773,23.838823
10329,1762,2.243367,6.981492,-1.860295,0.184658,0.63125,0.111648,23.847647
10339,1709,2.322376,7.158663,-1.82917,0.042101,0.44366,0.070613,23.841764
10349,1583,2.487576,7.587225,-1.728614,-0.172934,0.239283,0.071678,23.83
10359,1491,2.748544,8.259995,-1.608904,-0.40076,0.045832,0.103121,23.832941
10369,1474,3.066972,9.174581,-1.537078,-0.533191,-0.132432,0.131899,23.859411
10379,1534,3.3447,10.125079,-1.584962,-0.479366,-0.286447,0.132432,23.850588
10389,1499,3.469198,10.852917,-1.685518,-0.245412,-0.408487,0.100723,23.832941
10399,1535,3.363853,11.032481,-1.742979,0.057822,-0.473237,0.046364,23.824118
10409,1611,3.100491,10.766725,-1.742979,0.296573,-0.464711,-0.01359,23.844706
10419,1635,2.779668,10.340557,-1.819593,0.403957,-0.398628,-0.063685,23.835882
10429,1642,2.351106,10.024523,-2.001553,0.38344,-0.309363,-0.089531,23.841764
10439,1623,1.989582,9.94312,-2.341529,0.263265,-0.230757,-0.075942,23.827059
10449,1277,1.687912,10.110714,-2.724602,0.079672,-0.16574,-0.018919,23.835882
10459,2065,1.577779,10.436325,-2.868254,-0.119642,-0.115911,0.062619,23.859411
10469,4095,1.798046,10.97502,-2.602497,-0.280319,-0.078873,0.146554,23.841764
10479,4095,2.372654,11.820174,-2.097321,-0.403957,-0.057023,0.20411,23.844706
10489,2304,3.114856,12.943054,-1.723825,-0.490557,-0.036239,0.206775,23.832941
10499,1230,3.744531,13.907918,-1.443704,-0.475369,-0.016254,0.17027,23.83
10509,1535,4.187459,14.020445,-0.998382,-0.329881,0.024781,0.12657,23.824118
10519,1622,4.285621,13.175292,-0.320823,-0.094861,0.059688,0.107118,23.841764
10529,1680,4.15394,11.96622,0.201113,0.106585,0.05649,0.113247,23.85647
10539,1731,4.022259,10.979809,0.414197,0.201446,0.021051,0.135363,23.853529
10549,1742,3.933673,10.290278,0.337582,0.172135,-0.002398,0.167072,23.841764
10559,1818,3.864242,9.662998,0.201113,0.089531,0.021051,0.20411,23.835882
10569,1799,3.876213,9.038112,0.272939,0.022649,0.080738,0.261933,23.838823
10579,1740,3.998317,8.50181,0.624887,-0.024248,0.135896,0.340273,23.841764
10589,1875,4.225766,8.087613,1.130063,-0.072744,0.148953,0.43993,23.844706
10599,1979,4.570531,7.879318,1.642422,-0.114046,0.110049,0.545449,23.868235
10609,1938,5.051765,8.020576,1.999158,-0.154282,0.046631,0.63951,23.835882
10619,2007,5.633556,8.276755,2.063802,-0.175865,0.022383,0.689605,23.844706
10629,2121,6.078878,8.554482,1.867477,-0.114579,0.083403,0.621657,23.853529
10639,2192,6.337452,9.083601,1.381454,0.066083,0.205176,0.421277,23.850588
10649,2179,6.28478,9.765948,0.806846,0.305899,0.367185,0.158812,23.847647
10659,2302,5.932832,10.496181,0.248997,0.513473,0.493755,-0.071945,23.847647
10669,2224,5.370194,11.003751,-0.203507,0.595277,0.514805,-0.220897,23.838823
10679,2274,4.774038,11.180922,-0.64404,0.529194,0.421011,-0.299237,23.827059
10689,2304,4.115633,11.056423,-1.012747,0.348533,0.238484,-0.323752,23.835882
10699,2381,3.569755,10.673351,-1.266533,0.117243,0.011458,-0.309363,23.847647
10709,2351,3.138798,10.098742,-1.328782,-0.091663,-0.170003,-0.298438,23.847647
10719,2245,2.834735,9.595961,-1.362301,-0.241948,-0.251541,-0.320554,23.841764
10729,2127,2.652776,9.370906,-1.211466,-0.325617,-0.242747,-0.346668,23.85647
10739,2063,2.604892,9.220071,-0.988805,-0.346135,-0.164407,-0.342937,23.850588
10749,1743,2.631228,8.983045,-0.701501,-0.289112,-0.038104,-0.316557,23.853529
10759,1680,2.765303,8.671799,-0.445322,-0.166539,0.10392,-0.284582,23.844706
10769,1690,2.858677,8.231265,-0.23942,-0.004796,0.233155,-0.263531,23.832941
10779,1664,2.901772,7.852982,-0.19393,0.163608,0.327216,-0.255271,23.841764
10789,1621,2.858677,7.491457,-0.3304,0.308564,0.377577,-0.267795,23.838823
10799,1699,2.770091,7.278373,-0.677559,0.405023,0.401559,-0.290178,23.83
10809,1498,2.650381,7.055712,-1.235408,0.448456,0.431403,-0.302701,23.853529
10819,1531,2.590526,6.787562,-1.695095,0.442594,0.487893,-0.3051,23.841764
10829,1499,2.571373,6.569689,-2.070984,0.405289,0.528928,-0.306165,23.844706
10839,1604,2.686294,6.351817,-2.212242,0.329614,0.508144,-0.3043,23.85647
10849,1489,2.837129,6.217742,-2.092532,0.209173,0.413816,-0.297372,23.85647
10859,1616,2.99754,6.181829,-1.860295,0.057289,0.263265,-0.280052,23.850588
10869,1664,3.062184,6.270414,-1.58975,-0.104187,0.081271,-0.2606,23.859411
10879,1526,3.021482,6.469133,-1.431733,-0.247011,-0.092462,-0.246478,23.850588
10889,1631,2.904167,6.756437,-1.45328,-0.333078,-0.204377,-0.234221,23.838823
10899,1665,2.698265,7.046135,-1.570596,-0.345069,-0.215035,-0.212637,23.847647
10909,1504,2.470816,7.28795,-1.534683,-0.307498,-0.144956,-0.177198,23.832941
10919,1595,2.360683,7.414843,-1.264138,-0.256603,-0.056757,-0.132965,23.850588
10929,1596,2.475605,7.615956,-0.835576,-0.218499,-0.001599,-0.073277,23.844706
10939,1613,2.789245,7.891289,-0.462081,-0.211038,0.016787,-0.019718,23.859411
10949,1685,3.203442,8.221688,-0.294487,-0.201179,0.034374,0.003997,23.844706
10959,1664,3.672705,8.616732,-0.344765,-0.132965,0.093262,-0.015988,23.850588
10969,1663,4.070143,8.999804,-0.500388,0.007461,0.207041,-0.074077,23.844706
10979,1650,4.405331,9.291897,-0.636858,0.168671,0.337874,-0.142824,23.847647
10989,1711,4.637568,9.433155,-0.751779,0.292043,0.442328,-0.194518,23.841764
10999,1872,4.841076,9.576807,-1.046266,0.362123,0.446591,-0.227292,23.850588
11009,1852,5.027823,9.765948,-1.527501,0.366652,0.327216,-0.259534,23.835882
11019,1600,5.035006,9.85214,-2.030283,0.321354,0.117243,-0.304567,23.850588
11029,1897,4.742914,9.799467,-2.343924,0.258202,-0.114046,-0.346135,23.841764
11039,1456,4.276044,9.646238,-2.461239,0.185458,-0.281917,-0.358658,23.847647
11049,1379,3.689465,9.414001,-2.286463,0.074609,-0.394631,-0.337874,23.871176
11059,1251,3.215413,9.43076,-2.020706,-0.071145,-0.425807,-0.294708,23.844706
11069,1447,2.952051,9.837775,-1.80044,-0.252606,-0.387703,-0.267795,23.85647
11079,1456,2.82037,10.761936,-1.647211,-0.413017,-0.336009,-0.267528,23.844706
11089,1245,2.786851,11.96622,-1.534683,-0.528129,-0.312827,-0.277121,23.850588
11099,1361,2.82037,13.012486,-1.434127,-0.585418,-0.29524,-0.293375,23.859411
11109,1306,2.743755,13.529634,-1.33357,-0.565433,-0.258202,-0.342671,23.844706
11119,1392,2.425326,13.273455,-0.895431,-0.523332,-0.220631,-0.423942,23.853529
11129,1350,2.013524,12.571953,-0.146046,-0.493222,-0.255804,-0.514273,23.844706
11139,756,1.517924,11.961432,0.368707,-0.504147,-0.375712,-0.594744,23.850588
11149,1987,1.022324,11.451467,0.349553,-0.518802,-0.478567,-0.646438,23.859411
11159,4095,0.538695,10.81461,0.241814,-0.446325,-0.454319,-0.679479,23.85647
11169,4095,0.069432,10.228029,0.160412,-0.279253,-0.341338,-0.675216,23.865294
11179,982,-0.227449,9.631873,0.23942,-0.117243,-0.214236,-0.621657,23.85647
11189,1167,-0.320823,9.112331,0.505177,-0.016521,-0.128435,-0.540386,23.853529
11199,1425,-0.246603,8.865729,0.766145,0.000533,-0.119908,-0.449256,23.85647
11209,1520,0.007183,9.004593,1.070208,-0.079406,-0.14762,-0.33894,23.844706
11219,1217,0.332794,9.366117,1.244985,-0.230224,-0.141492,-0.216634,23.841764
11229,1322,0.701501,9.756371,1.16837,-0.340006,-0.00453,-0.119908,23.844706
11239,1422,0.962469,10.129868,0.984017,-0.311761,0.329614,-0.067149,23.841764
11249,1471,1.084573,10.556035,0.902614,-0.127902,0.815642,-0.039969,23.859411
11259,1574,1.079785,10.989386,0.873884,0.134297,1.332046,-0.001599,23.865294
11269,1525,1.036689,11.377247,0.837971,0.41808,1.749326,0.044233,23.859411
11279,1520,0.988805,11.784261,0.600945,0.750891,1.984879,0.088998,23.853529
11289,1707,1.058237,11.978191,0.275333,1.110083,2.006729,0.142557,23.847647
11299,1603,1.290475,11.805809,-0.263362,1.411452,1.814876,0.179596,23.838823
11309,1675,1.606509,11.049241,-0.916979,1.533225,1.515905,0.192386,23.847647
11319,1801,1.996764,9.981427,-1.604115,1.477002,1.24891,0.175332,23.868235
11329,1841,2.264915,8.947132,-2.195483,1.244113,1.073311,0.150818,23.847647
11339,1995,2.585738,8.157045,-2.528277,0.897179,0.969657,0.115378,23.85647
11349,1934,2.832341,7.793127,-2.504335,0.480698,0.899311,0.071145,23.844706
11359,1957,2.978387,7.769185,-2.178724,0.062352,0.800986,0.053559,23.853529
11369,2160,3.04303,7.965509,-1.714248,-0.25687,0.619792,0.075142,23.868235
11379,2177,2.992752,8.24563,-1.362301,-0.411951,0.36079,0.10925,23.862352
11389,2151,2.8491,8.41083,-1.237802,-0.394897,0.096193,0.118043,23.868235
11399,2197,2.597709,8.396465,-1.338359,-0.259002,-0.066349,0.10019,23.85647
11409,2321,2.212242,8.224083,-1.448492,-0.077807,-0.092196,0.063418,23.85647
11419,2001,1.824382,7.90326,-1.458069,0.085002,-0.032242,0.031443,23.868235
11429,1836,1.503559,7.513005,-1.381454,0.199847,0.063152,0.023982,23.859411
11439,1773,1.297657,7.117962,-1.331176,0.259534,0.171868,0.037038,23.850588
11449,1763,1.249773,6.859388,-1.240196,0.272591,0.27872,0.046631,23.847647
11459,1655,1.256956,6.842628,-1.197101,0.236352,0.362922,0.046897,23.838823
11469,1905,1.302446,6.943185,-1.228225,0.168937,0.424208,0.050361,23.838823
11479,1585,1.340753,7.10599,-1.364695,0.111381,0.476701,0.063152,23.85647
11489,1520,1.367089,7.235278,-1.656788,0.098325,0.503348,0.080472,23.853529
11499,1622,1.477222,7.254431,-1.886631,0.111381,0.488159,0.09566,23.85647
11509,1491,1.659182,7.189788,-1.936909,0.119109,0.421544,0.108184,23.859411
11519,1631,1.922544,7.163452,-1.759738,0.069014,0.298971,0.123639,23.853529
11529,1586,2.121263,7.230489,-1.501164,-0.059421,0.144423,0.146554,23.859411
11539,1766,2.25055,7.402872,-1.448492,-0.215835,-0.014922,0.163342,23.850588
11549,1405,2.214637,7.807492,-1.556231,-0.315225,-0.16121,0.172401,23.853529
11559,1573,2.152387,8.403648,-1.855506,-0.325351,-0.256603,0.172135,23.859411
11569,1421,2.090138,9.083601,-2.054225,-0.262732,-0.277121,0.176398,23.862352
11579,1399,2.047042,9.725247,-2.126051,-0.155348,-0.233155,0.196649,23.850588
11589,1558,2.011129,10.172963,-2.063802,-0.017054,-0.172668,0.227292,23.871176
11599,1535,1.982399,10.419566,-1.963245,0.135096,-0.150018,0.251008,23.862352
11609,1577,1.946486,10.45069,-1.975216,0.272858,-0.184658,0.254738,23.865294
11619,1707,1.929727,10.369287,-2.135628,0.340006,-0.253406,0.23955,23.853529
11629,1692,1.884237,10.225636,-2.389413,0.3051,-0.320021,0.229158,23.868235
11639,1459,1.812411,10.031705,-2.715025,0.198781,-0.354395,0.232089,23.853529
11649,1641,1.788469,9.883265,-3.035848,0.061286,-0.331213,0.236352,23.844706
11659,1621,1.917756,10.04607,-3.155558,-0.0866,-0.248876,0.250475,23.853529
11669,1643,2.099715,10.505757,-2.935291,-0.212637,-0.179596,0.290178,23.871176
11679,1729,2.413355,11.326968,-2.521094,-0.298172,-0.196116,0.330413,23.862352
11689,1744,2.937685,12.449849,-2.245761,-0.363988,-0.285381,0.324018,23.868235
11699,1561,3.433285,13.469779,-2.152387,-0.357859,-0.351464,0.277387,23.853529
11709,1714,3.770868,13.898341,-1.881842,-0.257669,-0.366652,0.228625,23.853529
11719,1763,3.857059,13.40753,-1.228225,-0.08207,-0.379709,0.194251,23.85647
11729,1859,3.770868,12.401965,-0.548272,0.096459,-0.446858,0.175865,23.868235
11739,2112,3.643975,11.530476,-0.213084,0.197449,-0.541985,0.174266,23.862352
11749,2033,3.526659,10.805033,-0.196325,0.159345,-0.605403,0.191587,23.847647
11759,1991,3.423708,10.058042,-0.304064,0.03011,-0.59128,0.223828,23.859411
11769,2071,3.277662,9.210494,-0.311246,-0.105253,-0.50841,0.265397,23.853529
11779,2064,3.198653,8.559271,0,-0.239816,-0.424741,0.329081,23.871176
11789,2024,3.303998,8.24563,0.466869,-0.403691,-0.407688,0.431669,23.877058
11799,1971,3.581726,8.204929,1.031901,-0.584086,-0.467109,0.558772,23.871176
11809,1950,4.039018,8.465898,1.472434,-0.739167,-0.58755,0.67415,23.844706
11819,1975,4.489128,9.016563,1.620875,-0.811112,-0.73064,0.731706,23.868235
11829,1985,4.915296,9.799467,1.467646,-0.733305,-0.847351,0.707991,23.859411
11839,2006,5.154716,10.635044,1.051055,-0.495087,-0.888652,0.576358,23.865294
11849,1983,5.001487,11.32218,0.78051,-0.173467,-0.90091,0.390368,23.865294
11859,2113,4.623203,11.626244,0.490811,0.058888,-0.915565,0.230757,23.862352
11869,2261,4.043807,11.552023,0.203507,0.170003,-0.947541,0.11751,23.868235
11879,1712,3.433285,11.204864,-0.098162,0.170003,-0.986178,0.045299,23.859411
11889,1718,2.937685,10.790668,-0.414197,0.096459,-0.985112,-0.003464,23.865294
11899,1970,2.521094,10.548853,-0.818817,0.002665,-0.919029,-0.023982,23.847647
11909,4095,2.197877,10.390836,-1.103727,-0.071412,-0.798855,-0.038104,23.850588
11919,4095,2.003947,10.206482,-1.254562,-0.097792,-0.652034,-0.05649,23.862352
11929,4016,1.953669,9.950302,-1.242591,-0.093795,-0.515871,-0.064217,23.838823
11939,1622,2.006341,9.617508,-1.199495,-0.081005,-0.411152,-0.050361,23.853529
11949,2047,2.13084,9.272743,-1.302446,-0.05196,-0.327749,-0.026113,23.865294
11959,2303,2.293645,8.844181,-1.450886,-0.002398,-0.259534,-0.010658,23.85647
11969,2011,2.470816,8.341399,-1.54426,0.045832,-0.211305,-0.009326,23.844706
11979,2141,2.602497,7.771579,-1.501164,0.065283,-0.17853,-0.017587,23.853529
11989,2337,2.671929,7.237672,-1.510741,0.067415,-0.152949,-0.025047,23.859411
11999,2229,2.695871,6.773197,-1.553837,0.060221,-0.145755,-0.033574,23.871176
12009,2230,2.698265,6.46195,-1.699883,0.034374,-0.168671,-0.049296,23.871176
12019,2421,2.703054,6.215348,-1.826776,-0.007994,-0.224361,-0.084202,23.865294
12029,2305,2.643199,6.126762,-1.984793,-0.073011,-0.29151,-0.122306,23.859411
12039,2373,2.537854,6.131551,-2.133234,-0.150551,-0.364254,-0.150551,23.853529
12049,2518,2.384625,6.196194,-2.106898,-0.229158,-0.428472,-0.163608,23.847647
12059,2323,2.267309,6.248867,-1.984793,-0.302435,-0.463911,-0.171602,23.850588
12069,2480,2.195483,6.31351,-1.771709,-0.353329,-0.454851,-0.179329,23.859411
12079,2622,2.169147,6.490681,-1.565808,-0.366919,-0.408753,-0.181727,23.868235
12089,2597,2.140416,6.804321,-1.549049,-0.349599,-0.351997,-0.164674,23.871176
12099,2666,2.102109,7.129933,-1.699883,-0.3043,-0.302435,-0.125504,23.85647
12109,2745,2.106898,7.390901,-1.922544,-0.231289,-0.261133,-0.081005,23.850588
12119,2765,2.15957,7.560889,-2.025495,-0.155081,-0.219032,-0.034107,23.844706
12129,2969,2.27928,7.594408,-1.881842,-0.107384,-0.175332,0.01732,23.847647
12139,2858,2.497152,7.599196,-1.539472,-0.11751,-0.136962,0.075409,23.835882
12149,3004,2.810793,7.675811,-1.115698,-0.179063,-0.105519,0.119642,23.850588
12159,2747,3.203442,7.905654,-0.861913,-0.247277,-0.066882,0.126303,23.853529
12169,2702,3.61285,8.279149,-0.88346,-0.272325,-0.016521,0.08207,23.862352
12179,2534,3.940856,8.791509,-1.096544,-0.232089,0.033841,-0.001599,23.877058
12189,2461,4.177882,9.399636,-1.381454,-0.140159,0.060221,-0.092995,23.859411
12199,2382,4.311957,9.957485,-1.628057,-0.031709,0.040502,-0.162276,23.865294
12209,2251,4.376601,10.366894,-1.814805,0.066882,-0.023182,-0.206508,23.853529
12219,2267,4.359841,10.539276,-2.015918,0.155614,-0.100456,-0.240616,23.850588
12229,2195,4.168305,10.515334,-2.32477,0.242214,-0.163075,-0.281651,23.868235
12239,1974,3.821146,10.307038,-2.628834,0.320288,-0.19958,-0.328815,23.874117
12249,2006,3.296816,9.923966,-2.863465,0.363988,-0.208374,-0.362922,23.85647
12259,2000,2.750938,9.471462,-2.901772,0.358126,-0.20944,-0.36985,23.85647
12269,2007,2.281674,9.074024,-2.844312,0.27792,-0.214769,-0.35253,23.853529
12279,1964,1.989582,9.030929,-2.657564,0.119375,-0.210772,-0.320554,23.871176
12289,2000,1.951274,9.583989,-2.475605,-0.133231,-0.194784,-0.282983,23.874117
12299,1921,2.140416,10.69011,-2.525883,-0.42181,-0.15668,-0.261666,23.897648
12309,1930,2.334347,11.973403,-2.724602,-0.555841,-0.078873,-0.296839,23.859411
12319,2069,2.470816,13.019669,-2.652776,-0.484695,0.022916,-0.375446,23.879999
12329,1774,2.437297,13.182474,-1.843535,-0.35706,0.071145,-0.438064,23.874117
12339,1837,2.315193,12.509704,-0.78051,-0.267528,0.037571,-0.477234,23.877058
12349,1858,2.099715,11.791444,-0.067038,-0.23875,-0.098591,-0.511342,23.871176
12359,1847,1.745373,11.386824,0.11971,-0.282983,-0.263531,-0.553443,23.853529
12369,1775,1.235408,11.209652,-0.23942,-0.295773,-0.340806,-0.576358,23.859411
12379,1777,0.663194,10.94629,-0.687136,-0.246478,-0.253406,-0.556107,23.879999
12389,1791,0.179565,10.45069,-0.756568,-0.179596,-0.066083,-0.505213,23.891766
12399,1815,-0.014365,9.82341,-0.555455,-0.192652,0.131366,-0.443394,23.865294
12409,1717,-0.162806,9.172187,-0.011971,-0.26593,0.259534,-0.3917,23.871176
12419,1632,-0.191536,8.899248,0.550666,-0.392766,0.286447,-0.335476,23.868235
12429,1723,-0.153229,9.131485,1.046266,-0.569697,0.234753,-0.258202,23.868235
12439,1808,-0.069432,9.694122,1.347936,-0.74423,0.192119,-0.148153,23.85647
12449,1862,0.04549,10.426748,1.508347,-0.782867,0.245678,-0.013323,23.874117
12459,1911,0.181959,11.324574,1.584962,-0.618193,0.422077,0.120708,23.868235
12469,2001,0.378284,12.275072,1.632846,-0.287779,0.661893,0.221164,23.88294
12479,2032,0.703895,12.998121,1.594538,0.124172,0.902775,0.264331,23.871176
12489,1973,1.051055,13.254301,1.367089,0.572095,1.103688,0.255271,23.874117
12499,1981,1.381454,12.892776,0.890643,1.015755,1.254772,0.227292,23.877058
12509,1808,1.608904,12.071565,0.21069,1.377877,1.35283,0.202245,23.879999
12519,1627,1.80044,11.073183,-0.521936,1.560404,1.42664,0.184126,23.888824
12529,1622,1.963245,10.168175,-1.362301,1.592113,1.519636,0.175066,23.88294
12539,1703,2.226608,9.524135,-2.121263,1.506046,1.629685,0.18759,23.85647
12549,1819,2.466028,9.069236,-2.782062,1.289145,1.645406,0.212371,23.865294
12559,1825,2.743755,8.595184,-3.143587,0.945142,1.507645,0.250475,23.868235
12569,1680,3.081338,8.034941,-3.110068,0.553709,1.234521,0.294974,23.871176
12579,1783,3.325546,7.596802,-2.626439,0.180928,0.921427,0.353862,23.868235
12589,1693,3.404555,7.266402,-1.90339,-0.120974,0.645106,0.417547,23.862352
12599,1600,3.430891,7.038953,-1.42455,-0.312827,0.415415,0.460181,23.865294
12609,1467,3.339911,6.924031,-1.175553,-0.365587,0.233954,0.449522,23.868235
12619,4095,3.213019,6.936002,-1.254562,-0.301636,0.087666,0.3909,23.874117
12629,4095,2.992752,6.995857,-1.443704,-0.184658,0.003198,0.317623,23.868235
12639,3698,2.693477,7.034164,-1.582567,-0.074609,-0.028511,0.266196,23.868235
12649,1001,2.406173,6.940791,-1.68073,-0.006662,-0.035972,0.253672,23.862352
12659,1760,2.171541,6.703765,-1.687912,0.015988,-0.041568,0.270992,23.874117
12669,1690,2.063802,6.46195,-1.596933,-0.007994,-0.04743,0.302168,23.871176
12679,1669,2.063802,6.287174,-1.381454,-0.076741,-0.053292,0.334943,23.868235
12689,1728,2.104503,6.212954,-1.302446,-0.177198,-0.07381,0.354129,23.871176
12699,1482,2.118869,6.325481,-1.218649,-0.28325,-0.129767,0.368784,23.874117
12709,1707,2.212242,6.543353,-1.218649,-0.377577,-0.2169,0.385305,23.874117
12719,1715,2.248155,6.821081,-1.302446,-0.438864,-0.326683,0.402625,23.874117
12729,1664,2.27928,7.16824,-1.374272,-0.471905,-0.44819,0.413816,23.868235
12739,1653,2.293645,7.565677,-1.426944,-0.511608,-0.553176,0.41808,23.868235
12749,1831,2.202666,7.893683,-1.400608,-0.551044,-0.637911,0.420744,23.874117
12759,1737,2.154782,8.279149,-1.450886,-0.575559,-0.690671,0.428472,23.888824
12769,1795,2.030283,8.65025,-1.486799,-0.55664,-0.685075,0.436466,23.879999
12779,1929,1.980005,9.030929,-1.508347,-0.496153,-0.640309,0.436732,23.88294
12789,1680,2.020706,9.375694,-1.376666,-0.40822,-0.572894,0.430603,23.871176
12799,1776,2.059013,9.674969,-1.242591,-0.299237,-0.498018,0.42634,23.862352
12809,1941,2.169147,10.014946,-1.244985,-0.144689,-0.418613,0.426606,23.868235
12819,1984,2.23379,10.481815,-1.582567,0.068214,-0.327749,0.429538,23.871176
12829,2176,2.300828,10.94629,-2.099715,0.312827,-0.220897,0.423409,23.853529
12839,2222,2.420538,11.207258,-2.554613,0.528129,-0.108717,0.411418,23.871176
12849,2256,2.542642,11.109096,-2.875436,0.638178,-0.036505,0.416747,23.894707
12859,2112,2.664747,10.620679,-2.942474,0.62219,-0.040236,0.431403,23.88294
12869,2149,2.734178,9.976639,-2.978387,0.500417,-0.094861,0.44739,23.885881
12879,1998,2.80361,9.540894,-3.098097,0.335476,-0.156946,0.454052,23.874117
12889,1968,2.858677,9.478644,-3.318364,0.162276,-0.200646,0.456983,23.885881
12899,1623,2.952051,9.701305,-3.318364,0.007461,-0.230224,0.463911,23.877058
12909,1599,3.145981,10.342952,-3.021482,-0.126836,-0.294708,0.483096,23.871176
12919,1590,3.608062,11.492168,-2.837129,-0.270992,-0.394897,0.511075,23.874117
12929,1667,4.129998,12.715605,-2.875436,-0.379709,-0.474836,0.515871,23.879999
12939,1392,4.548983,13.445837,-2.681506,-0.344536,-0.480698,0.481764,23.871176
12949,1403,4.912902,13.4195,-2.056619,-0.154015,-0.419412,0.440995,23.844706
12959,1466,5.125986,12.756307,-1.216254,0.084202,-0.350931,0.413816,23.874117
12969,1475,5.171476,11.868058,-0.584185,0.294974,-0.320021,0.388769,23.879999
12979,1632,5.073313,11.08276,-0.514753,0.433002,-0.33521,0.365054,23.874117
12989,1507,4.869806,10.395624,-0.835576,0.460447,-0.361323,0.347201,23.862352
12999,1446,4.697424,9.665392,-1.137246,0.399427,-0.355727,0.345335,23.85647
13009,1557,4.563348,9.016563,-1.233014,0.285648,-0.319489,0.350665,23.85647
13019,1595,4.592079,8.437167,-1.00317,0.148153,-0.288579,0.363188,23.868235
13029,1613,4.683059,7.946355,-0.531513,0.021317,-0.295773,0.37358,23.874117
13039,1828,4.841076,7.565677,0.007183,-0.075675,-0.358126,0.376778,23.865294
13049,1651,5.102044,7.357382,0.335188,-0.142291,-0.429538,0.38717,23.850588
13059,1573,5.470751,7.369353,0.328006,-0.210239,-0.44739,0.407954,23.859411
13069,1693,5.853823,7.532158,0.079009,-0.279519,-0.402891,0.397828,23.859411
13079,1626,6.145916,7.915231,-0.251391,-0.325084,-0.369583,0.316824,23.844706
13089,1635,6.301539,8.429984,-0.622492,-0.355727,-0.430337,0.181194,23.871176
13099,1722,6.208165,8.975863,-0.94571,-0.403424,-0.624855,0.02638,23.871176
13109,1631,5.837064,9.358934,-1.163582,-0.475369,-0.920095,-0.108983,23.850588
13119,1607,5.262455,9.548077,-1.352724,-0.573161,-1.211072,-0.20411,23.877058
13129,1527,4.601655,9.653421,-1.570596,-0.688806,-1.387737,-0.263531,23.862352
13139,1585,3.933673,9.725247,-1.769315,-0.796723,-1.420778,-0.293375,23.85647
13149,1535,3.306392,9.782708,-1.893813,-0.911035,-1.315259,-0.31336,23.865294
13159,1572,2.746149,9.770737,-1.671153,-1.00483,-1.129534,-0.337608,23.844706
13169,1650,2.425326,9.677363,-1.132457,-1.028279,-0.986711,-0.335743,23.850588
13179,1685,2.410961,9.469068,-0.627281,-0.949672,-0.898778,-0.294175,23.865294
13189,1654,2.547431,9.121908,-0.294487,-0.758619,-0.831629,-0.217167,23.871176
13199,1776,2.801216,8.669404,-0.320823,-0.505213,-0.729841,-0.135096,23.877058
13209,1887,3.026271,8.180987,-0.591368,-0.258735,-0.580089,-0.083403,23.871176
13219,2035,3.148375,7.678205,-0.919373,-0.065283,-0.405289,-0.078606,23.85647
13229,1952,3.124433,7.285556,-1.280898,0.067948,-0.265397,-0.108717,23.877058
13239,1910,3.131616,6.988675,-1.778892,0.147087,-0.237685,-0.147354,23.874117
13249,1806,3.177106,6.701371,-2.23379,0.163874,-0.31789,-0.181727,23.865294
13259,1787,3.248932,6.385336,-2.482787,0.095127,-0.438597,-0.190521,23.874117
13269,1760,3.287239,6.052542,-2.461239,-0.03544,-0.557706,-0.168138,23.868235
13279,1759,3.229778,5.791574,-2.25055,-0.199314,-0.668288,-0.133231,23.865294
13289,1786,3.129222,5.659893,-2.051831,-0.372248,-0.776205,-0.117243,23.859411
13299,1857,2.96881,5.717354,-1.972822,-0.535057,-0.867868,-0.133231,23.868235
13309,1907,2.753332,5.992687,-2.056619,-0.680812,-0.920628,-0.169737,23.877058
13319,1885,2.44448,6.335058,-2.1883,-0.789262,-0.923559,-0.2169,23.885881
13329,1969,2.133234,6.71813,-2.291251,-0.844953,-0.895847,-0.268328,23.871176
13339,2009,2.015918,7.04853,-2.363077,-0.846818,-0.7826,-0.321887,23.891766
13349,1811,1.84593,7.232883,-2.190695,-0.802319,-0.612064,-0.383173,23.888824
13359,1840,1.699883,7.381324,-1.90339,-0.7397,-0.422343,-0.436732,23.88294
13369,4095,1.604115,7.474698,-1.510741,-0.666423,-0.2606,-0.454585,23.874117
13379,4095,1.58975,7.546524,-1.156399,-0.580888,-0.144956,-0.425274,23.888824
13389,4095,1.733402,7.690176,-0.907402,-0.495087,-0.063152,-0.353329,23.888824
13399,1392,2.037466,8.063671,-0.85473,-0.428738,-0.00453,-0.268861,23.85647
13409,1891,2.53546,8.762778,-1.201889,-0.37358,0.059155,-0.209173,23.877058
13419,2011,3.119645,9.708488,-1.740585,-0.299504,0.119375,-0.20491,23.865294
13429,1943,3.746926,10.766725,-2.32477,-0.194518,0.141225,-0.23955,23.879999
13439,1939,4.355053,11.508927,-2.86586,-0.085801,0.145755,-0.295507,23.897648
13449,2128,4.714183,11.664551,-3.10528,0.022383,0.177464,-0.367985,23.897648
13459,1999,4.654328,11.346122,-2.777274,0.112714,0.201979,-0.428738,23.88294
13469,2014,4.407725,10.81461,-2.269703,0.14842,0.180129,-0.432202,23.885881
13479,2105,4.043807,10.30225,-2.075773,0.115645,0.125504,-0.396763,23.88294
13489,2116,3.624821,10.070012,-2.15957,0.023182,0.04823,-0.35253,23.894707
13499,2199,3.232172,10.113108,-2.425326,-0.095394,-0.019185,-0.308031,23.900589
13509,2138,2.882619,10.280702,-2.571373,-0.179596,-0.045032,-0.270193,23.879999
13519,2201,2.681506,10.46745,-2.585738,-0.216368,-0.003198,-0.250475,23.88294
13529,2251,2.604892,10.852917,-2.293645,-0.280052,0.09939,-0.288845,23.874117
13539,2341,2.554613,11.552023,-1.886631,-0.37811,0.183326,-0.363988,23.877058
13549,2431,2.547431,12.346898,-1.584962,-0.453786,0.245412,-0.440729,23.879999
13559,2320,2.511518,12.909535,-0.998382,-0.436732,0.30883,-0.479899,23.885881
13569,2349,2.430115,12.993333,-0.474052,-0.363455,0.348266,-0.457783,23.877058
13579,2544,2.360683,12.552799,0.371101,-0.28698,0.352263,-0.402092,23.877058
13589,2594,2.262521,12.047623,1.046266,-0.23049,0.287779,-0.352263,23.865294
13599,2494,2.118869,11.5616,1.405396,-0.20491,0.195051,-0.335743,23.877058
13609,2540,1.898602,11.106702,1.391031,-0.144956,0.144156,-0.353063,23.888824
13619,2509,1.568202,10.635044,1.218649,-0.022649,0.183326,-0.382907,23.865294
13629,2321,1.149217,10.144233,1.060631,0.123106,0.29151,-0.390101,23.868235
13639,2313,0.785298,9.579201,1.04866,0.228891,0.401293,-0.364787,23.871176
13649,2255,0.572214,9.078813,1.086968,0.248343,0.46924,-0.316291,23.868235
13659,2093,0.454898,8.753201,1.297657,0.17773,0.50468,-0.268861,23.859411
13669,1887,0.385466,8.853758,1.551443,0.040502,0.465243,-0.218499,23.885881
13679,1825,0.454898,9.3733,1.814805,-0.102855,0.381574,-0.138294,23.885881
13689,1758,0.684742,10.242394,1.848324,-0.139093,0.323752,-0.011724,23.885881
13699,1821,1.082179,11.200075,1.685518,0.013057,0.370383,0.130034,23.871176
13709,1795,1.604115,12.040441,1.403002,0.342404,0.527596,0.232089,23.879999
13719,1826,2.11408,12.445061,1.216254,0.738634,0.735969,0.264064,23.88294
13729,1838,2.540248,12.361263,0.940921,1.093828,0.923026,0.254205,23.879999
13739,1737,2.782062,11.812991,0.574608,1.360557,1.050928,0.229957,23.871176
13749,1890,2.794033,11.133038,0.009577,1.50045,1.113813,0.197182,23.885881
13759,1698,2.779668,10.546458,-0.962469,1.486594,1.112214,0.158812,23.88294
13769,1690,2.676718,9.97185,-2.123657,1.299804,1.005363,0.105253,23.868235
13779,1717,2.379837,9.382876,-2.952051,0.97019,0.808181,0.081271,23.894707
13789,1710,2.06859,8.827422,-3.090914,0.557173,0.581155,0.134564,23.888824
13799,1662,1.826776,8.394072,-2.662352,0.140692,0.403158,0.258735,23.88294
13809,1663,1.774103,8.123527,-2.066196,-0.189988,0.305632,0.388502,23.891766
13819,1566,1.821988,8.025364,-1.568202,-0.367185,0.273391,0.46924,23.891766
13829,1567,1.908179,8.049306,-1.321599,-0.368251,0.286447,0.498018,23.900589
13839,1593,1.980005,8.145074,-1.086968,-0.221963,0.323219,0.493489,23.891766
13849,1511,2.037466,8.157045,-1.027112,-0.000799,0.357326,0.498285,23.888824
13859,1498,2.126051,7.967903,-1.063026,0.231289,0.408753,0.498818,23.900589
13869,1456,2.152387,7.623138,-1.209072,0.438864,0.468974,0.478567,23.877058
13879,1470,2.092532,7.175423,-1.493982,0.591813,0.527329,0.446325,23.891766
13889,1535,2.006341,6.749255,-1.778892,0.67868,0.571029,0.414616,23.88294
13899,1535,1.94888,6.378153,-2.051831,0.687207,0.594478,0.397828,23.871176
13909,1535,1.946486,6.153099,-2.319981,0.622456,0.596077,0.399694,23.874117
13919,1725,2.047042,6.090849,-2.499547,0.480165,0.568897,0.406888,23.877058
13929,1563,2.209848,6.179435,-2.602497,0.280851,0.508677,0.407688,23.879999
13939,1741,2.365471,6.296751,-2.60968,0.06928,0.426074,0.384505,23.879999
13949,1738,2.420538,6.46195,-2.475605,-0.101256,0.331213,0.326949,23.879999
13959,1578,2.296039,6.684611,-2.367866,-0.197449,0.236619,0.253672,23.888824
13969,1497,2.094927,6.969521,-2.217031,-0.220631,0.167072,0.194518,23.888824
13979,1441,1.807622,7.252037,-2.092532,-0.20038,0.13936,0.168138,23.877058
13989,1373,1.539472,7.603985,-2.128445,-0.171069,0.152417,0.17027,23.891766
13999,1427,1.412579,8.063671,-2.243367,-0.167605,0.203577,0.181994,23.88294
14009,1353,1.405396,8.599973,-2.382231,-0.176931,0.286447,0.192652,23.879999
14019,1306,1.503559,9.050082,-2.410961,-0.158812,0.379443,0.201179,23.888824
14029,1366,1.661576,9.485827,-2.286463,-0.092995,0.448456,0.215035,23.891766
14039,1453,1.850718,9.85214,-2.25055,0.017054,0.477234,0.233421,23.879999
14049,1420,2.070984,10.084377,-2.37026,0.164141,0.482297,0.241149,23.885881
14059,1372,2.339135,10.108319,-2.552219,0.32242,0.494554,0.228358,23.88294
14069,1099,2.640805,9.957485,-2.810793,0.442061,0.531859,0.201979,23.885881
14079,1535,2.906561,9.667787,-2.990358,0.493222,0.576358,0.162809,23.885881
14089,4095,3.174711,9.349358,-3.143587,0.468708,0.610998,0.116178,23.868235
14099,4095,3.354277,9.129091,-3.217807,0.387436,0.6086,0.077541,23.868235
14109,2223,3.454833,9.105149,-3.167529,0.260067,0.550778,0.075675,23.877058
14119,762,3.576937,9.217676,-3.050213,0.108717,0.430337,0.105253,23.88294
14129,1521,3.722984,9.440337,-2.827552,-0.028511,0.281917,0.145489,23.891766
14139,1559,3.845088,9.713276,-2.389413,-0.103654,0.140959,0.178263,23.871176
14149,1531,3.955221,10.213664,-1.778892,-0.120175,0.015188,0.208374,23.874117
14159,1557,4.187459,11.049241,-1.651999,-0.152417,-0.093795,0.228891,23.891766
14169,1622,4.491522,11.949461,-2.197877,-0.194251,-0.133231,0.197182,23.906471
14179,1665,4.639963,12.58153,-2.726996,-0.15668,-0.087133,0.12577,23.900589
14189,1674,4.611232,12.667721,-2.44448,-0.035706,-0.021317,0.096459,23.891766
14199,1754,4.594473,12.109872,-1.520318,0.067415,-0.00906,0.14389,23.879999
14209,1767,4.630386,11.461043,-0.653617,0.088466,-0.067681,0.222496,23.88294
14219,1687,4.697424,10.929531,-0.342371,0.018919,-0.151617,0.276055,23.885881
14229,1801,4.620809,10.479421,-0.648829,-0.072478,-0.198515,0.28698,23.891766
14239,1883,4.367024,10.014946,-0.857124,-0.111914,-0.203577,0.29524,23.888824
14249,1904,4.213795,9.485827,-0.699107,-0.12204,-0.192119,0.341605,23.868235
14259,1965,4.173094,8.918402,-0.222661,-0.164674,-0.179596,0.410885,23.874117
14269,2021,4.216189,8.437167,0.222661,-0.236619,-0.192652,0.475636,23.894707
14279,2073,4.27365,8.099585,0.52433,-0.294175,-0.228358,0.521201,23.88294
14289,2237,4.400543,7.898471,0.658405,-0.29977,-0.262466,0.551311,23.888824
14299,2240,4.613626,7.898471,0.656011,-0.252606,-0.262998,0.564634,23.891766
14309,2239,4.912902,8.12592,0.514753,-0.199314,-0.233688,0.554775,23.894707
14319,2414,5.212177,8.561666,0.19393,-0.162009,-0.206775,0.507611,23.906471
14329,2325,5.568913,8.99741,-0.347159,-0.148953,-0.156147,0.410352,23.888824
14339,2157,5.815516,9.313444,-0.708684,-0.141225,-0.118842,0.239816,23.879999
14349,2135,5.839458,9.574412,-0.715866,-0.149219,-0.140692,0.042101,23.891766
14359,1979,5.564125,9.78989,-0.653617,-0.159345,-0.24408,-0.119109,23.894707
14369,1849,5.166687,9.969456,-0.775721,-0.155348,-0.375446,-0.227292,23.879999
14379,1723,4.659117,10.149021,-1.206678,-0.155614,-0.45272,-0.297905,23.871176
14389,1766,3.993528,10.299856,-1.817199,-0.204643,-0.444992,-0.332812,23.879999
14399,1572,3.184288,10.242394,-2.135628,-0.324818,-0.395697,-0.346135,23.88294
14409,1595,2.588132,9.998186,-2.078167,-0.522,-0.321087,-0.34427,23.879999
14419,1605,2.286463,9.495404,-1.745373,-0.707458,-0.213969,-0.342404,23.888824
14429,1598,2.157176,9.062054,-1.158794,-0.799387,-0.080472,-0.357593,23.88294
14439,1661,2.224213,8.707711,-0.64404,-0.752224,0.050095,-0.361057,23.88294
14449,1619,2.351106,8.470686,-0.270545,-0.586217,0.16494,-0.329881,23.879999
14459,1648,2.602497,8.348581,-0.263362,-0.359991,0.264864,-0.263798,23.90353
14469,1535,2.964022,8.161834,-0.521936,-0.142557,0.372515,-0.201979,23.879999
14479,1584,3.265691,7.891289,-0.921768,0.063152,0.470839,-0.180395,23.885881
14489,1591,3.485958,7.577648,-1.326388,0.234753,0.529727,-0.19585,23.888824
14499,1472,3.624821,7.206547,-1.661576,0.345069,0.522799,-0.22676,23.885881
14509,1531,3.665523,6.79235,-1.805228,0.377044,0.446058,-0.251274,23.877058
14519,1508,3.61285,6.385336,-1.836353,0.33894,0.314159,-0.257136,23.877058
14529,1488,3.533842,6.007052,-1.786075,0.243547,0.160943,-0.249142,23.88294
14539,1500,3.428497,5.693412,-1.726219,0.116711,0.014389,-0.240349,23.891766
14549,1565,3.28245,5.535394,-1.690306,-0.031443,-0.101256,-0.243014,23.874117
14559,1440,3.110068,5.628768,-1.814805,-0.194251,-0.170536,-0.248343,23.871176
14569,1626,2.987964,5.98311,-1.944092,-0.366119,-0.20038,-0.245412,23.877058
14579,1565,2.901772,6.488286,-2.006341,-0.515605,-0.209173,-0.223562,23.897648
14589,1516,2.89459,6.988675,-1.968034,-0.596609,-0.209173,-0.193718,23.888824
14599,1754,2.89459,7.37893,-1.900996,-0.579822,-0.200913,-0.172135,23.888824
14609,1804,2.856283,7.678205,-1.745373,-0.475902,-0.184925,-0.164407,23.906471
14619,1827,2.777274,7.869741,-1.56102,-0.340273,-0.161743,-0.164141,23.90353
14629,1915,2.794033,7.989451,-1.362301,-0.235286,-0.116711,-0.155614,23.888824
14639,1842,2.985569,8.164227,-1.134852,-0.194251,-0.042368,-0.135629,23.888824
14649,1730,3.383007,8.492233,-0.972046,-0.212371,0.055424,-0.09566,23.888824
14659,1698,3.902549,9.052477,-0.931344,-0.26593,0.152683,-0.038904,23.877058
14669,1479,4.52983,9.706094,-1.017536,-0.316291,0.198248,0.014922,23.874117
14679,1590,5.118803,10.271125,-1.242591,-0.321087,0.154815,0.041568,23.888824
14689,1497,5.48751,10.632649,-1.374272,-0.253672,0.007727,0.036239,23.897648
14699,1535,5.760449,10.776301,-1.666364,-0.148686,-0.191054,0.01279,23.894707
14709,1765,5.762844,10.651803,-1.963245,-0.046897,-0.348,-0.033841,23.885881
14719,1567,5.480328,10.400413,-2.121263,0.018919,-0.453519,-0.083936,23.915295
14729,1666,5.0374,10.005369,-2.078167,0.021051,-0.517737,-0.118309,23.906471
14739,1697,4.412514,9.586384,-1.946486,-0.019452,-0.561969,-0.130567,23.894707
14749,1489,3.785233,9.356541,-1.881842,-0.078606,-0.593412,-0.10472,23.90353
14759,1255,3.258508,9.361329,-1.939303,-0.154282,-0.599008,-0.034907,23.897648
14769,3521,2.999935,9.591172,-1.999158,-0.235819,-0.559571,0.055957,23.900589
14779,4095,3.086126,10.055647,-1.747767,-0.307764,-0.493222,0.130034,23.891766
14789,4095,3.529053,10.754754,-1.374272,-0.379176,-0.431936,0.16121,23.885881
14799,878,3.986346,11.643003,-1.170765,-0.405822,-0.392233,0.121773,23.877058
14809,1494,4.295198,12.567164,-1.386243,-0.314159,-0.391433,0.028778,23.90353
14819,1584,4.259285,12.909535,-1.553837,-0.113779,-0.394364,-0.09113,23.906471
14829,1729,3.770868,12.471396,-1.335965,0.093262,-0.414349,-0.185458,23.891766
14839,1623,3.203442,11.712435,-0.948104,0.203577,-0.455118,-0.208907,23.894707
14849,1615,2.808398,11.140221,-0.725443,0.163874,-0.492689,-0.178796,23.90353
14859,1635,2.53546,10.812215,-0.586579,0.017587,-0.519602,-0.129234,23.871176
14869,1722,2.281674,10.577583,-0.622492,-0.132165,-0.532925,-0.09113,23.894707
14879,1755,2.06859,10.287885,-0.852336,-0.196649,-0.48656,-0.091397,23.906471
14889,1838,1.80044,9.830592,-0.823605,-0.158279,-0.387969,-0.132165,23.894707
14899,1839,1.496376,9.382876,-0.639252,-0.046098,-0.310695,-0.181194,23.909412
14909,1849,1.264138,8.975863,-0.356736,0.071412,-0.282184,-0.208907,23.900589
14919,1986,1.175553,8.492233,0.07422,0.154282,-0.315225,-0.199314,23.909412
14929,2064,1.199495,8.066066,0.457293,0.20491,-0.403957,-0.14842,23.900589
14939,2114,1.278504,7.795521,0.811634,0.166806,-0.556374,-0.082603,23.885881
14949,2187,1.479617,7.802703,1.007959,0.00906,-0.743164,-0.05649,23.900589
14959,2444,1.685518,8.121132,0.835576,-0.241415,-0.851081,-0.06475,23.915295
14969,2384,1.735796,8.549694,0.462081,-0.503881,-0.768478,-0.100723,23.90353
14979,2302,1.721431,9.109938,0.112527,-0.682943,-0.462845,-0.163874,23.912354
14989,2514,1.781286,9.868899,-0.093374,-0.747427,0.049296,-0.217167,23.894707
14999,2583,1.855506,10.702082,0.04549,-0.69227,0.681877,-0.220631,23.912354
15009,2611,1.958457,11.434708,0.454898,-0.521734,1.310196,-0.16121,23.891766
15019,2613,2.080561,11.947066,0.907402,-0.231822,1.809014,-0.048496,23.891766
15029,2510,2.248155,12.313379,1.086968,0.2169,2.091464,0.091663,23.885881
15039,2371,2.557007,12.51928,0.802058,0.791927,2.090132,0.221963,23.88294
15049,2224,2.959233,12.215217,-0.112527,1.281152,1.844453,0.297639,23.897648
15059,2078,3.3447,11.281479,-1.280898,1.486328,1.489525,0.288312,23.915295
15069,2032,3.541024,10.086772,-2.13084,1.325384,1.079972,0.248609,23.897648
15079,1948,3.641581,8.753201,-2.375048,0.880126,0.690937,0.213436,23.879999
15089,1879,3.564966,7.699753,-2.090138,0.346668,0.403691,0.199314,23.909412
15099,1864,3.433285,7.082048,-1.642422,-0.112181,0.218233,0.213703,23.888824
15109,1872,3.270479,6.916849,-1.393425,-0.415415,0.110848,0.250208,23.909412
15119,1890,3.114856,7.098808,-1.422156,-0.545449,0.059954,0.297372,23.915295
15129,1893,3.016694,7.40766,-1.426944,-0.534257,0.039703,0.345602,23.88294
15139,1941,2.983175,7.654263,-1.280898,-0.444193,0.034374,0.3909,23.891766
15149,1874,3.038242,7.668628,-1.007959,-0.306165,0.037038,0.418346,23.906471
15159,1920,3.117251,7.505822,-0.727837,-0.146554,0.036239,0.413816,23.900589
15169,1907,3.064578,7.230489,-0.605733,0.004796,0.019185,0.375179,23.909412
15179,1932,2.918532,6.854599,-0.555455,0.136695,-0.011191,0.315225,23.906471
15189,1929,2.750938,6.55293,-0.766145,0.224628,-0.036772,0.251807,23.912354
15199,1893,2.540248,6.423643,-1.079785,0.237152,-0.035972,0.209173,23.897648
15209,1864,2.391808,6.428432,-1.426944,0.17027,-0.011458,0.196916,23.900589
15219,1743,2.358289,6.586449,-1.678335,0.037038,0.014655,0.204377,23.912354
15229,1825,2.403779,6.818686,-1.759738,-0.12124,0.014123,0.216634,23.912354
15239,1735,2.451663,7.012617,-1.647211,-0.239017,-0.027446,0.223828,23.918236
15249,1767,2.509123,7.247249,-1.357512,-0.313626,-0.122573,0.223828,23.897648
15259,1821,2.506729,7.477092,-1.000776,-0.355727,-0.243014,0.224894,23.906471
15269,1729,2.454057,7.711724,-0.751779,-0.395963,-0.349066,0.227825,23.90353
15279,1693,2.363077,7.93199,-0.677559,-0.43993,-0.411685,0.230224,23.90353
15289,1838,2.341529,8.269572,-0.754174,-0.490025,-0.414616,0.243547,23.906471
15299,1808,2.422932,8.777143,-0.821211,-0.527329,-0.345069,0.266462,23.90353
15309,1840,2.590526,9.481039,-0.907402,-0.511342,-0.23502,0.298438,23.909412
15319,1900,2.786851,10.213664,-1.070208,-0.401293,-0.098325,0.333078,23.90353
15329,1856,2.99754,10.776301,-1.216254,-0.166806,0.019718,0.350931,23.915295
15339,1725,3.246537,11.061212,-1.422156,0.15215,0.042101,0.358392,23.906471
15349,1639,3.560178,10.986992,-1.601721,0.438331,-0.041835,0.364254,23.906471
15359,1607,3.849876,10.591949,-1.87466,0.599274,-0.163075,0.366386,23.891766
15369,1629,4.10845,10.160992,-2.185906,0.601672,-0.256337,0.359458,23.885881
15379,1642,4.218584,9.832987,-2.513912,0.466043,-0.302168,0.341871,23.891766
15389,1659,4.149151,9.708488,-2.734178,0.248077,-0.340806,0.324018,23.900589
15399,1671,3.936068,9.799467,-2.834735,0.012257,-0.412217,0.323219,23.906471
15409,1707,3.739743,10.172963,-2.794033,-0.189988,-0.508144,0.346401,23.90353
15419,1730,3.689465,10.802638,-2.588132,-0.333345,-0.589149,0.370383,23.900589
15429,1739,3.892972,11.767501,-2.358289,-0.444193,-0.625654,0.359724,23.888824
15439,1403,4.125209,12.811374,-2.291251,-0.510809,-0.603538,0.296306,23.900589
15449,1715,4.213795,13.594277,-2.133234,-0.447923,-0.527862,0.186524,23.900589
15459,4095,4.058172,13.788208,-1.723825,-0.232622,-0.419412,0.08287,23.88294
15469,4095,3.837905,13.266272,-1.225831,0.0437,-0.305366,0.055957,23.894707
15479,3039,3.751714,12.29662,-0.80924,0.268594,-0.200113,0.102322,23.909412
15489,1014,3.909731,11.377247,-0.474052,0.372781,-0.103654,0.197182,23.90353
15499,1648,4.197036,10.582372,-0.3304,0.367185,0.002132,0.291243,23.894707
15509,1743,4.48434,9.844957,-0.344765,0.328015,0.13483,0.337874,23.918236
15519,1719,4.666299,9.088389,-0.28491,0.316824,0.279253,0.32615,23.900589
15529,1767,4.735731,8.422802,-0.122104,0.341072,0.404224,0.27792,23.897648
15539,1778,4.790798,7.90326,0.095768,0.366119,0.484429,0.229158,23.897648
15549,1856,4.862624,7.479486,0.430956,0.370916,0.515871,0.205709,23.90353
15559,1881,5.011064,7.149086,0.833182,0.363721,0.487093,0.219832,23.900589
15569,1882,5.317522,6.900089,0.967257,0.348,0.414882,0.254738,23.900589
15579,1939,5.695806,6.789956,0.823605,0.302968,0.344003,0.275522,23.90353
15589,1925,6.093243,6.787562,0.373495,0.227825,0.294175,0.245412,23.90353
15599,1947,6.466739,6.969521,-0.258574,0.119109,0.267528,0.16041,23.888824
15609,1994,6.667852,7.232883,-0.778116,-0.024248,0.212104,0.031176,23.891766
15619,1997,6.667852,7.587225,-0.986411,-0.20491,0.060487,-0.108184,23.88294
15629,2102,6.476315,7.917625,-0.895431,-0.420211,-0.198248,-0.219032,23.897648
15639,2174,6.179435,8.202535,-0.768539,-0.638178,-0.495354,-0.285115,23.879999
15649,2282,5.791574,8.444349,-0.694318,-0.832162,-0.724245,-0.306698,23.894707
15659,2289,5.245696,8.607155,-0.701501,-0.978717,-0.835893,-0.292309,23.894707
15669,2370,4.721366,8.616732,-0.826,-1.017354,-0.854279,-0.306165,23.885881
15679,2478,4.185065,8.635885,-0.955287,-0.977917,-0.759152,-0.380775,23.888824
15689,2466,3.713407,8.801085,-0.988805,-0.962196,-0.6094,-0.486827,23.897648
15699,2479,3.236961,8.920795,-0.802058,-1.015222,-0.473504,-0.563835,23.894707
15709,2451,2.873042,8.942344,-0.454898,-1.067715,-0.394364,-0.579023,23.915295
15719,2368,2.566584,8.942344,-0.280122,-1.077041,-0.355461,-0.529461,23.897648
15729,2191,2.396596,8.839393,-0.076614,-1.004564,-0.341072,-0.447657,23.891766
15739,2017,2.329558,8.669404,0.016759,-0.83909,-0.332545,-0.369317,23.891766
15749,1907,2.341529,8.413225,0.031125,-0.613397,-0.3043,-0.305899,23.885881
15759,1837,2.391808,8.094796,-0.038307,-0.370383,-0.244346,-0.268061,23.891766
15769,1777,2.449268,7.797915,-0.184354,-0.154548,-0.154015,-0.253406,23.900589
15779,1794,2.573767,7.534553,-0.323217,0.015188,-0.043433,-0.24408,23.912354
15789,1782,2.724602,7.354988,-0.466869,0.129501,0.079939,-0.230757,23.915295
15799,1740,2.853889,7.261614,-0.581791,0.20411,0.196383,-0.202778,23.927059
15809,1818,2.954445,7.21373,-0.756568,0.257936,0.28325,-0.164141,23.906471
15819,1738,3.050213,7.194576,-0.921768,0.3051,0.328015,-0.12124,23.906471
15829,1773,3.148375,7.204153,-1.199495,0.340806,0.319489,-0.082337,23.897648
15839,1867,3.308787,7.151481,-1.623269,0.33894,0.242747,-0.05649,23.900589
15849,1843,3.471592,7.062895,-1.944092,0.268594,0.121773,-0.049562,23.915295
15859,1898,3.655946,6.924031,-1.999158,0.126303,-0.000266,-0.053559,23.900589
15869,1851,3.751714,6.770802,-1.776498,-0.051161,-0.093795,-0.060221,23.909412
15879,1967,3.754108,6.631939,-1.371878,-0.202245,-0.160943,-0.065816,23.906471
15889,2025,3.653552,6.687006,-1.031901,-0.298438,-0.215568,-0.059688,23.894707
15899,1877,3.588908,6.974309,-0.749385,-0.352796,-0.254472,-0.038371,23.912354
15909,1821,3.62961,7.445967,-0.550666,-0.39996,-0.27419,-0.001599,23.894707
15919,1838,3.847482,8.12592,-0.430956,-0.448989,-0.267262,0.037305,23.894707
15929,1818,4.165911,8.980651,-0.483629,-0.470573,-0.240616,0.057289,23.885881
15939,1822,4.575319,9.919178,-0.703895,-0.411152,-0.198248,0.032508,23.894707
15949,1796,4.920084,10.793061,-1.039083,-0.241149,-0.141758,-0.047697,23.900589
15959,1915,5.075707,11.372458,-1.268927,-0.005329,-0.113247,-0.157213,23.894707
15969,1952,4.936844,11.451467,-1.338359,0.205976,-0.154815,-0.255005,23.90353
15979,1904,4.601655,11.154586,-1.417367,0.320821,-0.254205,-0.315492,23.918236
15989,2010,4.213795,10.656591,-1.592144,0.340273,-0.349066,-0.343737,23.90353
15999,1975,3.890578,10.218452,-1.850718,0.289378,-0.373847,-0.344003,23.888824
16009,1978,3.627216,10.036493,-1.996764,0.19585,-0.326417,-0.310695,23.888824
16019,1963,3.471592,10.139444,-1.996764,0.077541,-0.25687,-0.240882,23.879999
16029,1911,3.476381,10.479421,-1.704672,-0.054092,-0.233688,-0.146021,23.894707
16039,1731,3.751714,10.996569,-1.359907,-0.188922,-0.269394,-0.064217,23.90353
16049,1662,4.146757,11.544841,-1.201889,-0.27792,-0.301369,-0.049562,23.90353
16059,1698,4.417302,12.200851,-1.194707,-0.274456,-0.287779,-0.098058,23.918236
16069,1749,4.453215,12.813767,-1.228225,-0.17027,-0.24781,-0.162809,23.891766
16079,1771,4.185065,13.000515,-1.144428,-0.002398,-0.220897,-0.195317,23.891766
16089,1781,3.79481,12.612655,-0.873884,0.149752,-0.228092,-0.175332,23.888824
16099,1855,3.440468,11.923124,-0.54109,0.236086,-0.256603,-0.125237,23.906471
16109,1870,3.136404,11.300632,-0.363919,0.247544,-0.291776,-0.079672,23.888824
16119,1713,2.873042,10.888829,-0.385466,0.196649,-0.307231,-0.058622,23.90353
16129,1639,2.6839,10.532093,-0.548272,0.123372,-0.270459,-0.074343,23.897648
16139,3760,2.420538,10.146626,-0.701501,0.083136,-0.174,-0.116977,23.909412
16149,4095,2.056619,9.679757,-0.675165,0.102055,-0.044499,-0.171602,23.909412
16159,4095,1.697489,9.148245,-0.416591,0.156413,0.044499,-0.206775,23.88294
16169,1259,1.491588,8.573636,-0.021548,0.202511,0.055691,-0.214502,23.897648
16179,1789,1.386243,8.130709,0.37589,0.215568,-0.002398,-0.198515,23.912354
16189,1984,1.493982,7.927202,0.634463,0.173734,-0.087133,-0.149752,23.918236
16199,1899,1.690306,7.788338,0.881066,0.057822,-0.148686,-0.091663,23.906471
16209,1905,1.881842,7.855376,1.043872,-0.105253,-0.199314,-0.098058,23.909412
16219,1942,1.982399,8.109161,0.912191,-0.25607,-0.173467,-0.159345,23.894707
16229,1930,2.001553,8.523358,0.682347,-0.320288,0.003464,-0.227825,23.894707
16239,1956,1.96564,9.100361,0.488417,-0.290711,0.323752,-0.2614,23.894707
16249,2003,1.927332,9.734824,0.52433,-0.200646,0.710655,-0.245678,23.906471
16259,2032,1.915361,10.268731,0.687136,-0.074609,1.075176,-0.196383,23.909412
16269,2119,1.872266,10.66138,0.718261,0.104453,1.365887,-0.143623,23.894707
16279,2023,1.850718,10.94629,0.471658,0.361856,1.571329,-0.09113,23.906471
16289,2103,1.900996,11.027693,0.014365,0.657896,1.647804,-0.029311,23.912354
16299,2178,2.049437,10.850522,-0.538695,0.913167,1.644073,0.030643,23.921177
16309,2235,2.358289,10.393229,-1.041478,1.040802,1.547614,0.068214,23.915295
16319,2271,2.772485,9.797073,-1.434127,1.010959,1.393865,0.07834,23.90353
16329,2366,3.145981,9.131485,-1.532289,0.831096,1.17057,0.084469,23.906471
16339,2419,3.414132,8.461109,-1.443704,0.535856,0.920095,0.093262,23.909412
16349,2463,3.452439,7.8865,-1.218649,0.21317,0.679746,0.109516,23.897648
16359,2495,3.308787,7.522582,-1.130063,-0.056757,0.481498,0.127103,23.909412
16369,2514,3.076549,7.414843,-1.158794,-0.225427,0.348,0.154548,23.906471
16379,2547,2.827552,7.489063,-1.268927,-0.282983,0.284049,0.197182,23.909412
16389,2540,2.619257,7.659051,-1.316811,-0.257936,0.27792,0.260334,23.906471
16399,2432,2.525883,7.793127,-1.154005,-0.189721,0.298438,0.340273,23.909412
16409,2318,2.573767,7.754819,-0.890643,-0.103121,0.321087,0.417014,23.891766
16419,2071,2.6839,7.592013,-0.68953,0.005063,0.333345,0.464711,23.897648
16429,1987,2.743755,7.326257,-0.553061,0.131899,0.331746,0.469507,23.918236
16439,1909,2.743755,7.127539,-0.612916,0.258735,0.327749,0.436732,23.918236
16449,1839,2.698265,7.022193,-0.840365,0.35173,0.332812,0.395164,23.90353
16459,1782,2.60968,7.034164,-1.194707,0.382374,0.337608,0.364521,23.912354
16469,1772,2.521094,7.079654,-1.493982,0.336009,0.32242,0.350665,23.90353
16479,1744,2.513912,7.089231,-1.632846,0.243813,0.273391,0.342404,23.90353
16489,1699,2.528277,7.098808,-1.51553,0.132698,0.19132,0.333611,23.909412
16499,1733,2.568978,7.141904,-1.221043,0.028778,0.088732,0.320288,23.93
16509,1676,2.585738,7.237672,-0.948104,-0.059688,-0.00826,0.302168,23.918236
16519,1653,2.607286,7.503428,-0.806846,-0.143357,-0.074876,0.283516,23.924118
16529,1747,2.592921,8.099585,-0.857124,-0.237685,-0.107118,0.265663,23.906471
16539,1717,2.621651,8.89446,-0.921768,-0.333611,-0.116711,0.247277,23.894707
16549,1709,2.722207,9.780313,-0.991199,-0.398095,-0.124971,0.233954,23.924118
16559,1690,2.817975,10.54167,-1.21386,-0.368784,-0.137761,0.227292,23.921177
16569,1659,2.875436,11.104307,-1.690306,-0.166806,-0.130833,0.213703,23.912354
16579,1649,2.944868,11.257536,-2.243367,0.194784,-0.08287,0.199047,23.912354
16589,1601,3.095703,10.896012,-2.516306,0.568897,-0.015455,0.192919,23.915295
16599,1633,3.330335,10.290278,-2.39899,0.776738,0.021583,0.201446,23.90353
16609,1564,3.557784,9.739613,-2.310405,0.751957,0.007727,0.2177,23.915295
16619,1633,3.713407,9.504981,-2.485181,0.554775,-0.036772,0.23502,23.918236
16629,1685,3.782839,9.595961,-2.806004,0.278986,-0.098858,0.258469,23.915295
16639,1673,3.797204,10.002975,-3.04303,0.022383,-0.166006,0.287247,23.909412
16649,1789,3.849876,10.651803,-2.808398,-0.167072,-0.238217,0.310429,23.932941
16659,1777,4.113238,11.592725,-2.267309,-0.302701,-0.307231,0.325084,23.93
16669,1792,4.532224,12.77546,-2.128445,-0.401293,-0.318689,0.316824,23.921177
16679,1715,4.860229,13.807362,-2.329558,-0.371182,-0.238217,0.253139,23.90353
16689,1567,4.891354,14.235924,-2.209848,-0.142557,-0.140692,0.141492,23.921177
16699,1521,4.671088,13.716381,-1.537078,0.203844,-0.131632,0.062619,23.900589
16709,1501,4.424485,12.564771,-0.778116,0.515072,-0.206508,0.055158,23.909412
16719,1571,4.31914,11.365275,-0.332794,0.670953,-0.271525,0.107384,23.912354
16729,1648,4.316746,10.400413,-0.311246,0.657629,-0.259801,0.181461,23.921177
16739,1697,4.292804,9.552865,-0.52433,0.5649,-0.168404,0.245412,23.912354
16749,1710,4.292804,8.726865,-0.577003,0.486294,-0.034374,0.28325,23.918236
16759,1827,4.316746,7.920019,-0.335188,0.44819,0.08207,0.294708,23.915295
16769,1888,4.378995,7.273585,0.203507,0.423409,0.142025,0.297639,23.909412
16779,1743,4.582502,6.823475,0.663194,0.383972,0.150551,0.309896,23.912354
16789,1535,4.903325,6.636727,1.005565,0.310695,0.130034,0.333611,23.900589
16799,3570,5.295974,6.684611,1.132457,0.216368,0.115378,0.359458,23.927059
16809,4095,5.734113,6.847417,0.818817,0.141225,0.094328,0.369317,23.918236
16819,4095,6.256049,7.041347,-0.086191,0.094594,0.110848,0.301636,23.912354
16829,1615,6.557718,7.359776,-1.103727,0.050095,0.131632,0.124971,23.918236
16839,1670,6.639122,7.826645,-1.728614,-0.047164,0.068214,-0.094594,23.900589
16849,2009,6.526594,8.250419,-1.711854,-0.217433,-0.125504,-0.268061,23.90353
16859,1983,6.186617,8.441956,-1.309628,-0.414882,-0.3909,-0.370383,23.906471
16869,1989,5.695806,8.444349,-0.895431,-0.574493,-0.622989,-0.434067,23.921177
16879,2054,5.08289,8.470686,-0.885855,-0.683476,-0.748227,-0.487893,23.900589
16889,2093,4.434062,8.678981,-1.197101,-0.788196,-0.738634,-0.540919,23.921177
16899,2113,3.763685,9.009381,-1.587356,-0.933152,-0.601672,-0.585152,23.93
16909,2087,3.114856,9.416395,-1.752556,-1.121274,-0.400227,-0.602472,23.906471
16920,2146,2.559402,9.607931,-1.508347,-1.261433,-0.263265,-0.575293,23.912354
16930,2160,2.231396,9.528923,-1.149217,-1.268095,-0.201712,-0.506012,23.906471
16940,2208,2.106898,9.315839,-0.670376,-1.111948,-0.168937,-0.404757,23.927059
16950,2284,2.214637,9.078813,-0.244209,-0.845752,-0.145755,-0.276055,23.935883
16960,2266,2.446874,8.700529,0.004788,-0.53106,-0.115378,-0.157479,23.93
16970,2390,2.691083,8.240842,0.107739,-0.213703,-0.079672,-0.088466,23.938824
16980,2398,2.942474,7.785944,-0.174777,0.053292,-0.02558,-0.068214,23.924118
16990,2466,3.110068,7.381324,-0.617704,0.243547,0.041035,-0.089531,23.921177
17000,2512,3.220201,7.024588,-1.115698,0.354395,0.09566,-0.139626,23.93
17010,2585,3.270479,6.744466,-1.608904,0.378377,0.106319,-0.191587,23.941765
17020,2679,3.263297,6.509834,-1.910573,0.313093,0.059421,-0.223828,23.915295
17030,2666,3.244143,6.344635,-2.111686,0.174533,-0.037305,-0.225694,23.915295
17040,2727,3.1795,6.246472,-2.070984,-0.018652,-0.159877,-0.207308,23.924118
17050,2687,3.124433,6.234501,-1.893813,-0.22596,-0.270992,-0.17853,23.93
17060,2542,3.040636,6.339846,-1.651999,-0.407688,-0.345069,-0.149485,23.938824
17070,2402,2.987964,6.605602,-1.484405,-0.531593,-0.367718,-0.1303,23.924118
17080,2223,2.89459,6.991069,-1.352724,-0.585152,-0.339207,-0.120175,23.915295
17090,2304,2.784456,7.376535,-1.280898,-0.563568,-0.285381,-0.106851,23.921177
17100,2086,2.703054,7.702147,-1.120486,-0.472704,-0.227559,-0.070346,23.924118
17110,2116,2.734178,7.867347,-0.940921,-0.340539,-0.175332,0.002398,23.918236
17120,2080,2.880225,7.805098,-0.677559,-0.20411,-0.132965,0.080205,23.938824
17130,2003,3.124433,7.730877,-0.416591,-0.10845,-0.107917,0.137761,23.93
17140,1956,3.519476,7.908048,-0.356736,-0.094328,-0.092995,0.178263,23.921177
17150,1964,4.046201,8.276755,-0.54109,-0.149752,-0.043167,0.211038,23.90353
17160,2000,4.510676,8.834604,-0.943315,-0.210772,-0.005063,0.210505,23.921177
17170,1856,4.955997,9.452309,-1.513135,-0.232089,-0.015721,0.164674,23.912354
17180,1936,5.238513,10.067618,-2.049437,-0.198515,-0.102322,0.063418,23.906471
17190,2102,5.257667,10.498574,-2.252944,-0.144156,-0.266196,-0.058089,23.93
17200,1904,5.08289,10.517728,-2.035071,-0.110582,-0.45192,-0.174799,23.918236
17210,1824,4.776433,10.27352,-1.678335,-0.116711,-0.566499,-0.259534,23.921177
17220,1936,4.386178,10.141838,-1.527501,-0.151884,-0.573427,-0.290711,23.93
17230,1893,3.967192,10.28549,-1.599327,-0.200113,-0.50015,-0.254472,23.918236
17240,1947,3.634398,10.601525,-1.786075,-0.249942,-0.395697,-0.168937,23.924118
17250,1938,3.416526,10.915166,-1.910573,-0.270459,-0.310695,-0.074876,23.921177
17260,1985,3.414132,11.228806,-1.850718,-0.243014,-0.266995,-0.014389,23.924118
17270,1983,3.576937,11.504139,-1.611298,-0.197182,-0.253406,0.002132,23.93
17280,1926,3.971981,11.93749,-1.455675,-0.166806,-0.238484,-0.021051,23.93
17290,2014,4.367024,12.433089,-1.616086,-0.153482,-0.175332,-0.098858,23.935883
17300,2080,4.551377,12.732365,-1.850718,-0.110315,-0.071145,-0.222763,23.921177
17310,1995,4.345476,12.65575,-1.908179,-0.009859,0.009326,-0.33894,23.909412
17320,2205,3.952827,12.191275,-1.608904,0.105519,0.016521,-0.3917,23.915295
17330,2226,3.564966,11.566388,-1.223437,0.156413,-0.03544,-0.37358,23.912354
17340,2106,3.303998,10.857705,-0.787692,0.095394,-0.079939,-0.332279,23.938824
17350,2040,3.052607,10.266336,-0.308852,-0.036505,-0.106851,-0.303501,23.921177
17360,1976,2.724602,9.770737,-0.055067,-0.142557,-0.132965,-0.289911,23.924118
17370,1874,2.300828,9.296685,0,-0.154282,-0.152417,-0.290711,23.906471
17380,1869,1.915361,8.784326,0.064643,-0.098325,-0.162276,-0.297905,23.918236
17390,1862,1.606509,8.362947,0.270545,-0.063418,-0.17853,-0.319489,23.921177
17400,1858,1.388637,8.221688,0.708684,-0.126037,-0.246744,-0.343737,23.927059
17410,1797,1.398214,8.391677,1.235408,-0.314959,-0.37891,-0.357859,23.918236
17420,1865,1.656788,8.791509,1.58975,-0.591547,-0.507345,-0.371449,23.891766
17430,1840,1.819593,9.323022,1.778892,-0.808181,-0.543317,-0.394098,23.915295
17440,1858,1.805228,9.92636,1.599327,-0.8263,-0.403691,-0.419678,23.918236
17450,1775,1.625663,10.67814,1.268927,-0.600873,-0.050361,-0.421277,23.912354
17460,1502,1.391031,11.439496,1.072602,-0.247277,0.419412,-0.380242,23.918236
17470,3231,1.21386,11.908759,0.890643,0.103121,0.868934,-0.295773,23.921177
17480,4095,1.120486,11.918336,0.672771,0.40449,1.21347,-0.177198,23.93
17490,4095,1.221043,11.702858,0.351948,0.652034,1.426906,-0.031975,23.941765
17500,1376,1.549049,11.405977,-0.033519,0.815908,1.520701,0.135896,23.935883
17510,1559,2.094927,10.927136,-0.548272,0.911835,1.53962,0.27792,23.927059
17520,1851,2.619257,10.271125,-1.015141,0.965926,1.531626,0.355194,23.941765
17530,1796,3.086126,9.514558,-1.335965,0.94008,1.437032,0.35706,23.935883
