time, ECG, accX, accY, accZ, gyroX, gyroY, gyroZ, temp
2047,2043,0.545878,8.09719,5.439626,-0.105519,0.061819,-0.077274,25.235882
2057,2111,0.600945,8.049306,5.556942,-0.083403,0.068747,-0.03544,25.227058
2067,2068,0.756568,7.991845,5.631162,-0.055158,0.062352,-0.004263,25.224117
2077,2123,0.938527,7.912837,5.612009,-0.028511,0.031443,0.007194,25.232941
2087,2165,1.091756,7.838616,5.434838,-0.015455,-0.002398,-0.014123,25.218235
2097,2176,1.13964,7.817069,5.279215,-0.02185,-0.020784,-0.05649,25.209412
2107,2170,1.086968,7.817069,5.300763,-0.038637,-0.023182,-0.105519,25.227058
2117,2147,0.926556,7.874529,5.386954,-0.052227,-0.019985,-0.140692,25.221176
2127,2115,0.754174,8.010999,5.379771,-0.054358,-0.01732,-0.154815,25.227058
2137,2119,0.651223,8.058883,5.422867,-0.041835,-0.025047,-0.146288,25.232941
2147,2081,0.533907,7.94875,5.346252,-0.023982,-0.029044,-0.1303,25.227058
2157,2029,0.47884,7.78355,5.221754,-0.012524,-0.019452,-0.122839,25.238823
2167,1936,0.462081,7.64708,5.066131,-0.018119,0.006129,-0.12577,25.232941
2177,1881,0.445322,7.608773,5.030218,-0.031975,0.039969,-0.128968,25.224117
2187,1798,0.440533,7.685388,5.169082,-0.048496,0.038904,-0.108983,25.23
2197,1735,0.433351,7.845799,5.26485,-0.059688,-0.001865,-0.074876,25.247646
2207,1738,0.490811,7.908048,5.233725,-0.062352,-0.041035,-0.043433,25.232941
2217,1679,0.550666,7.843405,5.190629,-0.06475,-0.064217,-0.02185,25.232941
2227,1698,0.624887,7.675811,5.181053,-0.076208,-0.06102,-0.022116,25.23
2237,1712,0.653617,7.560889,5.188235,-0.092462,-0.042368,-0.033574,25.250587
2247,1738,0.591368,7.654263,5.178658,-0.093262,-0.033574,-0.058355,25.241764
2257,1744,0.490811,7.855376,5.171476,-0.103654,-0.036505,-0.090864,25.238823
2267,1772,0.399832,8.046912,5.286397,-0.108717,-0.033574,-0.106851,25.23
2277,1789,0.311246,8.123527,5.403713,-0.088732,-0.018119,-0.099657,25.247646
2287,1765,0.294487,8.044518,5.386954,-0.055691,-0.005329,-0.075142,25.241764
2297,1783,0.332794,7.929596,5.307945,-0.035706,-0.010658,-0.037571,25.235882
2307,1827,0.423774,7.879318,5.228937,-0.055158,-0.029844,-0.000533,25.241764
2317,1831,0.543484,7.934384,5.334281,-0.102055,-0.046364,0.022649,25.23
2327,1829,0.61531,8.09719,5.544971,-0.124704,-0.045565,0.014922,25.235882
2337,1815,0.651223,8.209718,5.81791,-0.098325,-0.046897,-0.008793,25.232941
2347,1818,0.629675,8.202535,5.872977,-0.032242,-0.051161,-0.03091,25.238823
2378,1782,0.579397,7.841011,5.104438,0.024248,-0.03011,-0.064217,25.241764
2388,1781,0.565032,7.754819,5.228937,-0.015455,-0.033041,-0.044766,25.232941
2398,1808,0.562637,7.747637,5.415684,-0.044499,-0.045299,-0.029577,25.238823
2408,1808,0.581791,7.819463,5.470751,-0.04743,-0.049562,-0.02558,25.247646
2418,1808,0.565032,7.888895,5.427655,-0.028778,-0.040236,-0.029844,25.253529
2428,1791,0.550666,7.884106,5.317522,-0.008793,-0.033841,-0.037571,25.235882
2438,1807,0.512359,7.843405,5.193024,0.003198,-0.025847,-0.043167,25.25647
2448,1907,0.493206,7.76679,5.169082,0.001332,-0.018919,-0.042101,25.253529
2458,2045,0.474052,7.680599,5.197812,-0.00906,-0.013057,-0.033041,25.235882
2468,2006,0.505177,7.661446,5.252879,-0.016254,-0.013323,-0.022383,25.262352
2478,2119,0.514753,7.706935,5.360618,-0.024515,-0.023182,-0.011991,25.268236
2488,2147,0.502782,7.855376,5.48751,-0.028511,-0.031975,-0.005862,25.268236
2498,1978,0.531513,8.001422,5.533,-0.014922,-0.034107,-0.001332,25.259411
2508,1782,0.533907,8.039729,5.501875,0.01732,-0.035706,0.005063,25.262352
2518,1698,0.588974,7.924808,5.334281,0.049296,-0.045032,0.014922,25.27706
2528,1704,0.651223,7.745243,5.166687,0.059688,-0.056224,0.027979,25.288824
2538,1724,0.725443,7.635109,5.092467,0.049296,-0.068214,0.037571,25.288824
2548,1726,0.80924,7.606379,5.11162,0.022916,-0.078873,0.03544,25.271177
2558,1769,0.821211,7.685388,5.228937,-0.005329,-0.083136,0.014389,25.288824
2568,1759,0.73502,7.824251,5.418078,-0.019452,-0.074343,-0.019452,25.285883
2578,1761,0.617704,7.975086,5.537788,-0.010658,-0.05649,-0.051427,25.262352
2588,1776,0.454898,8.082825,5.592855,0.018652,-0.038637,-0.068214,25.25647
2598,1438,0.347159,8.116343,5.544971,0.043966,-0.028511,-0.070346,25.27706
2608,2189,0.280122,8.018182,5.389348,0.058089,-0.011724,-0.054092,25.285883
2618,4095,0.268151,7.905654,5.17387,0.05276,0.00373,-0.024781,25.280001
2628,4095,0.306458,7.788338,5.039794,0.031176,0.00373,0.005063,25.280001
2638,1833,0.416591,7.757214,5.001487,0.003997,0.001599,0.02558,25.268236
2648,1296,0.526724,7.82904,5.109226,-0.016787,-0.002132,0.033041,25.274118
2658,1889,0.617704,7.946355,5.286397,-0.016254,-0.011991,0.028245,25.285883
2668,1817,0.634463,8.075643,5.391742,0.003198,-0.021051,0.015455,25.282942
2678,1823,0.586579,8.010999,5.497087,0.024515,-0.023715,0.007194,25.271177
2688,1858,0.533907,7.879318,5.475539,0.034107,-0.022916,0.007994,25.282942
2698,1841,0.521936,7.920019,5.317522,0.044233,-0.024781,0.014389,25.268236
2708,1893,0.56982,7.965509,5.2026,0.050894,-0.040502,0.017853,25.27706
2718,1909,0.624887,7.833828,5.159505,0.043966,-0.059688,0.015721,25.282942
2728,1927,0.646434,7.762002,5.102044,0.032775,-0.060487,0.005329,25.285883
2738,1963,0.593762,7.845799,4.999093,0.019985,-0.042368,-0.012524,25.282942
2748,1994,0.502782,7.939173,5.035006,0.002132,-0.026646,-0.025047,25.280001
2758,2023,0.395043,7.965509,5.17387,-0.010126,-0.01279,-0.024781,25.291765
2768,2038,0.332794,7.955932,5.343858,0.002665,0.000533,-0.007727,25.27706
2778,2044,0.311246,7.924808,5.363012,0.036772,-0.000266,0.018386,25.291765
2788,2113,0.31364,7.874529,5.161899,0.058355,-0.011724,0.038904,25.288824
2798,2143,0.366313,7.788338,4.936844,0.043167,-0.015188,0.049296,25.294706
2808,2153,0.430956,7.76679,4.898537,0.000799,-0.013057,0.053559,25.285883
2818,2206,0.488417,7.893683,5.114015,-0.036239,-0.017853,0.053825,25.288824
2828,2235,0.545878,8.099585,5.394136,-0.037038,-0.026113,0.049828,25.282942
2838,2224,0.588974,8.348581,5.683835,0.00453,-0.032242,0.044233,25.274118
2848,2179,0.59855,8.47308,5.719748,0.06928,-0.042101,0.040502,25.288824
2858,2158,0.61531,8.418014,5.50427,0.124172,-0.047963,0.041568,25.282942
2868,2185,0.608127,8.180987,5.157111,0.145755,-0.03917,0.0437,25.312353
2878,2179,0.56982,7.951144,4.896142,0.123639,-0.021583,0.04743,25.285883
2888,2043,0.531513,7.888895,4.79798,0.073277,-0.002665,0.052493,25.280001
2898,1985,0.476446,7.989451,4.987122,0.029044,-0.000799,0.06102,25.27706
2908,1923,0.447716,8.137892,5.233725,0.021583,-0.011991,0.074609,25.294706
2918,1870,0.471658,8.224083,5.353435,0.058888,-0.025847,0.090064,25.271177
2928,1855,0.519542,8.192958,5.269638,0.108184,-0.037305,0.107118,25.280001
2938,1822,0.565032,8.010999,5.030218,0.140426,-0.039436,0.120974,25.282942
2948,1782,0.56982,7.762002,4.793192,0.139626,-0.026113,0.127103,25.285883
2958,1841,0.553061,7.608773,4.649539,0.107118,-0.00453,0.1311,25.294706
2968,1831,0.505177,7.57286,4.577713,0.067149,0.019452,0.132432,25.297647
2978,1856,0.474052,7.69257,4.651934,0.03091,0.029844,0.132432,25.297647
2988,1872,0.481235,7.69257,4.905719,-0.001599,0.029044,0.142291,25.285883
2998,1903,0.517148,7.759608,5.00867,-0.008793,0.029311,0.163874,25.291765
3008,1831,0.624887,7.833828,4.886566,0.005862,0.042101,0.188389,25.300589
3018,1870,0.725443,7.838616,4.735731,0.006662,0.057822,0.205709,25.280001
3028,1850,0.869095,7.833828,4.683059,-0.022116,0.062352,0.212104,25.288824
3038,1899,1.005565,7.807492,4.718972,-0.062352,0.055691,0.208374,25.285883
3048,1860,1.09415,7.850587,4.826711,-0.088998,0.055158,0.192919,25.291765
3058,1855,1.122881,7.94875,4.953603,-0.100456,0.056757,0.167338,25.282942
3068,1866,1.118092,8.056489,5.025429,-0.103387,0.055424,0.14309,25.280001
3078,1847,1.070208,8.121132,5.135562,-0.097259,0.055158,0.118842,25.306471
3088,1841,1.036689,8.157045,5.224148,-0.0874,0.054358,0.103121,25.300589
3098,1836,1.000776,8.161834,5.157111,-0.082337,0.057556,0.096726,25.306471
3108,1835,0.972046,8.197746,5.106832,-0.090864,0.058622,0.093795,25.300589
3118,1811,0.969652,8.231265,5.102044,-0.101789,0.054891,0.084469,25.297647
3128,1831,1.005565,8.197746,5.159505,-0.103121,0.046631,0.070613,25.306471
3138,1844,1.031901,8.137892,5.157111,-0.088998,0.034374,0.054092,25.30353
3148,1812,1.039083,8.099585,5.114015,-0.074876,0.023182,0.037305,25.309412
3158,1936,1.029507,8.051701,5.025429,-0.070879,0.019718,0.024781,25.309412
3168,2033,1.041478,7.991845,4.910508,-0.078074,0.019452,0.014123,25.312353
3178,2069,1.051055,7.958326,4.905719,-0.091663,0.018919,0.002132,25.30353
3188,2098,1.039083,7.939173,4.898537,-0.10392,0.012257,-0.011991,25.30353
3198,2138,1.012747,7.979874,4.972757,-0.111914,0.002931,-0.024515,25.294706
3208,2061,1.00317,8.034941,5.099649,-0.10845,-0.008527,-0.033574,25.297647
3218,1810,0.986411,8.09719,5.169082,-0.092196,-0.023449,-0.035706,25.309412
3228,1683,0.984017,8.140285,5.17387,-0.068481,-0.030377,-0.034374,25.309412
3238,1695,1.005565,8.075643,5.075707,-0.050894,-0.029844,-0.035173,25.306471
3248,1731,1.029507,7.996634,5.023035,-0.049029,-0.028778,-0.041035,25.315294
3258,1709,1.007959,7.910442,5.039794,-0.054358,-0.034107,-0.059421,25.309412
3268,1781,0.952892,7.90326,5.039794,-0.059421,-0.0429,-0.07834,25.306471
3278,1777,0.909797,7.965509,5.066131,-0.063418,-0.049296,-0.087666,25.309412
3288,1771,0.897826,8.034941,5.114015,-0.058622,-0.056757,-0.08207,25.30353
3298,1758,0.916979,8.070854,5.068525,-0.048763,-0.055691,-0.067681,25.312353
3308,1451,0.979228,8.027759,5.039794,-0.043966,-0.050361,-0.061553,25.309412
3318,2320,0.993594,7.975086,5.061342,-0.0429,-0.049562,-0.069813,25.312353
3328,4095,0.981623,7.939173,5.142745,-0.038371,-0.054092,-0.093528,25.315294
3338,4095,0.897826,7.924808,5.2026,-0.030377,-0.067415,-0.122573,25.327059
3348,1744,0.806846,7.939173,5.171476,-0.018652,-0.080205,-0.142291,25.306471
3358,1354,0.708684,7.984663,5.11162,-0.005862,-0.082603,-0.144423,25.312353
3368,1846,0.6608,8.058883,5.049371,-0.003198,-0.07834,-0.124704,25.321177
3378,1782,0.658405,8.070854,5.080496,-0.011991,-0.068747,-0.093795,25.318235
3388,1767,0.70629,7.922413,5.193024,-0.031975,-0.054625,-0.069813,25.312353
3398,1744,0.751779,7.879318,5.269638,-0.044766,-0.052493,-0.063152,25.306471
3408,1851,0.799663,8.032547,5.171476,-0.032242,-0.072744,-0.072478,25.315294
3418,1855,0.814029,8.063671,5.109226,-0.006129,-0.102322,-0.099657,25.327059
3428,1825,0.804452,7.924808,5.080496,0.007994,-0.121507,-0.129767,25.321177
3438,1851,0.790087,7.864953,5.011064,0.005063,-0.12204,-0.142824,25.321177
3448,1886,0.742203,7.864953,4.927267,-0.016521,-0.104187,-0.136429,25.312353
3458,1910,0.732626,7.93199,4.989516,-0.047963,-0.085801,-0.122306,25.324118
3468,1921,0.701501,7.987057,5.109226,-0.06555,-0.08287,-0.113513,25.324118
3478,1937,0.682347,8.032547,5.195418,-0.054625,-0.085002,-0.117243,25.332941
3488,1997,0.651223,8.013393,5.21936,-0.023982,-0.090331,-0.129501,25.318235
3498,1989,0.572214,7.982268,5.149928,0.002398,-0.101522,-0.142824,25.338823
3508,1997,0.474052,7.910442,5.027823,0.004263,-0.102055,-0.150818,25.338823
3518,2027,0.411803,7.922413,4.994305,-0.01732,-0.085534,-0.146021,25.344706
3528,2039,0.426168,8.00621,5.05416,-0.041568,-0.072211,-0.123639,25.335882
3538,2075,0.454898,8.137892,5.12838,-0.046364,-0.068747,-0.095127,25.324118
3548,2054,0.509965,8.183381,5.17387,-0.034374,-0.06555,-0.068481,25.324118
3558,2077,0.533907,8.176199,5.228937,-0.014389,-0.061286,-0.049828,25.332941
3568,2045,0.574608,8.106767,5.183447,0.000533,-0.060221,-0.038104,25.327059
3578,1978,0.61531,7.999028,5.154716,0.001066,-0.07008,-0.028778,25.350588
3588,1930,0.665588,7.929596,5.049371,-0.001865,-0.085002,-0.022916,25.312353
3598,1857,0.665588,7.893683,5.020641,-0.01732,-0.088998,-0.024515,25.338823
3608,1760,0.667982,7.929596,5.075707,-0.031709,-0.084469,-0.03091,25.33
3618,1712,0.672771,7.996634,5.154716,-0.037571,-0.085801,-0.039703,25.33
3628,1669,0.656011,8.056489,5.252879,-0.027979,-0.10019,-0.045565,25.318235
3638,1623,0.629675,8.090008,5.298368,-0.007727,-0.120175,-0.047164,25.335882
3648,1567,0.624887,8.058883,5.26485,0.019718,-0.144156,-0.044499,25.315294
3658,1582,0.605733,7.972692,4.93445,0.037571,-0.142291,-0.043433,25.318235
3668,1583,0.543484,7.905654,4.848258,0.012257,-0.088199,-0.043167,25.335882
3678,1644,0.562637,7.90326,4.977545,-0.005862,-0.075942,-0.032775,25.33
3688,1606,0.605733,7.963115,5.030218,-0.013057,-0.102855,-0.02558,25.335882
3698,1666,0.596156,8.025364,5.001487,-0.013057,-0.132165,-0.02638,25.344706
3708,1662,0.586579,7.97748,4.936844,-0.015455,-0.133498,-0.034107,25.338823
3718,1651,0.538695,7.929596,4.996699,-0.023182,-0.118043,-0.041835,25.338823
3728,1663,0.517148,7.94875,5.092467,-0.029311,-0.114312,-0.03544,25.35647
3738,1714,0.52433,8.082825,5.114015,-0.024515,-0.126836,-0.01279,25.35647
3748,1695,0.531513,8.159439,5.099649,-0.019452,-0.138827,0.010925,25.341764
3758,1701,0.574608,8.197746,5.078102,-0.019452,-0.146288,0.02185,25.321177
3768,1728,0.656011,8.173804,5.073313,-0.015988,-0.147354,0.015188,25.321177
3778,1712,0.739808,8.058883,5.197812,-0.022116,-0.162809,0.006662,25.338823
3788,1622,0.766145,7.97748,5.21936,-0.025047,-0.198781,0.009593,25.341764
3798,1670,0.737414,8.003817,5.178658,-0.068747,-0.239283,0.030377,25.341764
3808,1674,0.713472,8.00621,5.154716,-0.063418,-0.270193,0.057822,25.332941
3818,1619,0.742203,8.061277,5.068525,-0.00826,-0.249675,0.061553,25.324118
3828,1631,0.790087,8.078036,5.001487,0.01732,-0.19585,0.035706,25.335882
3838,1626,0.770933,7.996634,4.953603,0.027179,-0.144956,0.003997,25.338823
3848,1651,0.756568,7.869741,4.924873,0.013323,-0.111914,-0.01359,25.350588
3858,1712,0.737414,7.788338,5.00867,-0.025047,-0.108983,-0.005862,25.332941
3868,1862,0.727837,7.781156,5.080496,-0.051161,-0.108184,0.013323,25.327059
3878,1846,0.739808,7.85777,5.166687,-0.069813,-0.090331,0.03544,25.338823
3888,1919,0.80924,7.94875,5.204995,-0.074077,-0.070346,0.051427,25.335882
3898,1949,0.869095,8.010999,5.188235,-0.061819,-0.057289,0.054891,25.327059
3908,1858,0.912191,7.958326,5.114015,-0.04743,-0.0437,0.046364,25.338823
3918,1631,0.962469,7.884106,5.116409,-0.037571,-0.03544,0.030377,25.350588
3928,1514,0.960075,7.802703,5.061342,-0.037571,-0.039436,0.019718,25.350588
3938,1528,0.94571,7.797915,5.020641,-0.04743,-0.043433,0.016254,25.341764
3948,1489,0.921768,7.879318,5.006276,-0.059954,-0.046098,0.018652,25.324118
3958,1533,0.921768,7.991845,5.030218,-0.063951,-0.047697,0.020784,25.347647
3968,1518,0.905008,8.042124,5.044583,-0.055957,-0.052493,0.017587,25.344706
3978,1584,0.864307,7.979874,5.068525,-0.0429,-0.059155,0.013323,25.353529
3988,1569,0.859518,7.855376,5.00867,-0.042101,-0.059155,0.009859,25.35647
3998,1535,0.830788,7.785944,5.05416,-0.066882,-0.046631,0.011458,25.338823
4008,1356,0.826,7.781156,5.118803,-0.105253,-0.034374,0.01732,25.33
4018,1603,0.806846,7.896077,5.21936,-0.128968,-0.03011,0.024248,25.347647
4028,4095,0.806846,8.06846,5.169082,-0.129234,-0.024248,0.026646,25.335882
4038,4095,0.804452,8.173804,5.114015,-0.11298,-0.010126,0.025847,25.344706
4048,2395,0.828394,8.116343,5.063736,-0.091397,0.000266,0.025847,25.335882
4058,837,0.876278,8.003817,5.023035,-0.077008,0.005063,0.031176,25.33
4068,1653,0.938527,7.93199,4.979939,-0.074343,0.014389,0.036239,25.350588
4078,1679,0.991199,7.994239,5.006276,-0.081005,0.024515,0.039436,25.353529
4088,1616,0.995988,8.015787,5.149928,-0.090864,0.027446,0.041035,25.353529
4098,1638,0.955287,8.001422,5.231331,-0.092995,0.031176,0.034907,25.347647
4108,1695,0.871489,8.135497,5.154716,-0.075142,0.027979,0.026913,25.350588
4118,1648,0.845153,8.118738,5.0374,-0.049296,0.009859,0.018919,25.350588
4128,1743,0.876278,7.869741,4.996699,-0.041035,-0.008527,0.010126,25.359411
4138,1781,0.90022,7.666234,4.994305,-0.057822,-0.011991,0.004263,25.359411
4148,1805,0.857124,7.656657,4.994305,-0.087133,0.002665,0.001865,25.371176
4158,1840,0.778116,7.785944,4.994305,-0.114046,0.028511,-0.002132,25.371176
4168,1907,0.675165,8.056489,5.068525,-0.130833,0.050095,-0.005329,25.368235
4178,1966,0.596156,8.300697,5.224148,-0.120708,0.051161,-0.002931,25.350588
4188,1971,0.548272,8.255207,5.324705,-0.066616,0.03917,0.005596,25.350588
4198,2064,0.577003,7.982268,5.245696,-0.00906,0.031975,0.027179,25.362352
4208,2067,0.648829,7.762002,5.046977,-0.005862,0.026913,0.055158,25.359411
4218,2119,0.730232,7.673417,4.869806,-0.057822,0.030643,0.067415,25.35647
4228,2160,0.742203,7.759608,4.848258,-0.12657,0.039436,0.05649,25.365294
4238,2195,0.713472,7.984663,5.099649,-0.16947,0.051161,0.037571,25.359411
4248,2211,0.64404,8.169016,5.446809,-0.162009,0.059688,0.027979,25.371176
4258,2235,0.629675,8.226477,5.667076,-0.106319,0.062619,0.030377,25.371176
4268,2256,0.68953,8.188169,5.600038,-0.041835,0.059688,0.041568,25.371176
4278,2222,0.78051,8.049306,5.422867,-0.009859,0.061286,0.050628,25.365294
4288,2183,0.873884,7.910442,5.300763,-0.016787,0.07008,0.053292,25.353529
4298,2131,0.924162,7.82904,5.327099,-0.043966,0.079406,0.04823,25.362352
4308,2059,0.916979,7.821857,5.439626,-0.066083,0.086067,0.03464,25.362352
4318,2016,0.888249,7.874529,5.540183,-0.068214,0.090864,0.021317,25.368235
4328,1954,0.826,7.927202,5.604826,-0.049562,0.098058,0.009326,25.377058
4338,1942,0.758962,7.987057,5.631162,-0.017853,0.102855,0.007727,25.374117
4348,1886,0.70629,7.982268,5.580884,0.015188,0.098591,0.011991,25.388824
4358,1891,0.675165,7.929596,5.585672,0.047697,0.077008,0.020518,25.371176
4368,1894,0.679953,7.85777,5.559336,0.071412,0.045032,0.03464,25.362352
4378,1936,0.703895,7.797915,5.439626,0.09113,0.014922,0.049029,25.374117
4388,1959,0.766145,7.807492,5.204995,0.096193,-0.000266,0.049029,25.374117
4398,1985,0.804452,7.852982,5.145139,0.088732,-0.001066,0.03917,25.388824
4408,1982,0.828394,7.884106,5.243302,0.084202,-0.004796,0.034907,25.368235
4418,2010,0.804452,7.915231,5.370194,0.103654,-0.021051,0.038371,25.362352
4428,2038,0.73502,7.920019,5.295974,0.132432,-0.024781,0.040236,25.377058
4438,2011,0.656011,7.989451,5.025429,0.148953,-0.010126,0.039703,25.377058
4448,2067,0.605733,8.003817,4.836287,0.152417,0.017587,0.041035,25.377058
4458,2092,0.593762,8.049306,4.76925,0.13856,0.047164,0.045299,25.377058
4468,2128,0.59855,8.066066,4.805163,0.116977,0.070346,0.060753,25.388824
4478,2151,0.636858,8.092402,4.898537,0.102855,0.079939,0.079939,25.377058
4488,2139,0.727837,8.058883,4.987122,0.098325,0.075409,0.101789,25.374117
4498,2156,0.837971,7.955932,4.970363,0.093262,0.062086,0.121773,25.38294
4508,2151,0.986411,7.850587,4.955997,0.08287,0.059421,0.12577,25.379999
4518,2226,1.101333,7.819463,5.020641,0.076475,0.041302,0.114845,25.385881
4528,2211,1.218649,7.862558,4.987122,0.074343,0.01279,0.091397,25.385881
4538,2259,1.321599,8.001422,4.850653,0.062352,-0.011724,0.061553,25.391766
4548,2295,1.338359,8.14268,4.853047,0.037838,-0.026913,0.036772,25.385881
4558,2316,1.276109,8.145074,5.090073,0.022916,-0.034907,0.018119,25.385881
4568,2295,1.173159,8.042124,5.279215,0.033841,-0.039969,0.001865,25.38294
4578,2359,1.055843,7.94875,5.300763,0.06102,-0.042634,-0.011724,25.388824
4588,2469,0.981623,7.924808,5.097255,0.080738,-0.044233,-0.024515,25.368235
4598,2544,0.940921,7.922413,4.876989,0.081804,-0.039703,-0.036239,25.40353
4608,2593,0.893037,7.90326,4.704607,0.062352,-0.027446,-0.045032,25.412354
4618,2638,0.878672,7.90326,4.656722,0.027179,-0.015988,-0.04823,25.406471
4628,2510,0.852336,7.936779,4.711789,-0.00826,0.002665,-0.05196,25.409412
4638,2309,0.823605,8.042124,4.824317,-0.038104,0.018386,-0.051161,25.412354
4648,2206,0.847547,8.169016,5.011064,-0.046897,0.024248,-0.046631,25.397648
4658,2176,0.890643,8.250419,5.145139,-0.028511,0.015988,-0.039969,25.397648
4668,2224,0.92895,8.219295,5.099649,-0.001332,0.011991,-0.03917,25.391766
4678,2250,0.92895,8.080431,5.0374,0.017054,0.017853,-0.046631,25.397648
4688,2227,0.919373,7.908048,4.96318,0.02638,0.021583,-0.051161,25.394707
4698,2198,0.916979,7.76679,4.884171,0.018119,0.014389,-0.050628,25.394707
4708,2217,0.940921,7.69257,4.778827,-0.00453,-0.001066,-0.048763,25.409412
4718,2160,0.931344,7.716512,4.747702,-0.031443,-0.011724,-0.053825,25.400589
4728,1991,0.902614,7.845799,4.745308,-0.043966,-0.01359,-0.063418,25.388824
4738,2181,0.859518,7.982268,4.747702,-0.037038,-0.019185,-0.067415,25.40353
4748,4095,0.811634,8.06846,4.685453,-0.022916,-0.027179,-0.057822,25.385881
4758,4095,0.804452,8.073248,4.683059,-0.022649,-0.032242,-0.034374,25.38294
4768,3857,0.792481,8.008605,4.659117,-0.041035,-0.02558,-0.007194,25.379999
4778,1483,0.833182,7.967903,4.771644,-0.059954,-0.019985,0.014922,25.38294
4788,2145,0.895431,8.015787,4.850653,-0.068481,-0.016521,0.025847,25.391766
4798,2192,0.993594,8.130709,4.915296,-0.068214,-0.015188,0.021317,25.406471
4808,2089,1.046266,8.152257,4.96318,-0.065017,-0.015721,0.004263,25.391766
4818,2116,1.043872,8.025364,4.99191,-0.067415,-0.009326,-0.018919,25.394707
4828,2163,0.981623,7.970297,4.920084,-0.070879,-0.004796,-0.045299,25.38294
4838,2135,0.936133,8.049306,4.831499,-0.077008,-0.015188,-0.074876,25.397648
4848,2192,0.847547,8.149862,4.848258,-0.089265,-0.024515,-0.102055,25.388824
4858,2195,0.718261,8.255207,4.915296,-0.092729,-0.011724,-0.110049,25.388824
4868,2215,0.620098,8.307879,5.032612,-0.082603,0.007461,-0.09113,25.421177
4878,2203,0.588974,8.300697,5.092467,-0.077807,0.017587,-0.056757,25.415295
4888,2189,0.653617,8.250419,5.032612,-0.083936,0.023982,-0.023449,25.406471
4898,2229,0.732626,8.159439,4.979939,-0.087933,0.026646,-0.002665,25.400589
4908,2225,0.814029,8.056489,5.011064,-0.084202,0.017587,0.002665,25.400589
4918,2255,0.857124,7.970297,5.0374,-0.075142,-0.002132,-0.006129,25.385881
4928,2270,0.861913,7.970297,4.982334,-0.066882,-0.019452,-0.025314,25.40353
4938,2306,0.811634,8.003817,4.879383,-0.067948,-0.035706,-0.041035,25.394707
4948,2281,0.782904,8.075643,4.826711,-0.076741,-0.048763,-0.045832,25.400589
4958,2284,0.730232,8.145074,4.903325,-0.083403,-0.054092,-0.035706,25.377058
4968,2282,0.727837,8.147469,5.05416,-0.075409,-0.053825,-0.014655,25.385881
4978,2275,0.768539,8.085219,5.106832,-0.057822,-0.047963,0.009326,25.394707
4988,2240,0.821211,8.025364,5.078102,-0.042368,-0.041568,0.02558,25.409412
4998,2235,0.840365,7.960721,5.015852,-0.044233,-0.033841,0.029844,25.421177
5008,2178,0.842759,7.94875,5.001487,-0.054891,-0.022916,0.022916,25.40353
5018,2079,0.835576,7.972692,4.977545,-0.065283,-0.015188,0.010925,25.394707
5028,2007,0.816423,8.025364,4.982334,-0.073011,-0.01279,-0.002931,25.421177
5038,1919,0.792481,8.090008,5.030218,-0.074343,-0.020518,-0.017054,25.412354
5048,1872,0.766145,8.137892,5.049371,-0.069813,-0.031709,-0.02638,25.394707
5058,1826,0.758962,8.176199,5.05416,-0.062885,-0.037038,-0.030377,25.400589
5068,1764,0.725443,8.214506,5.018247,-0.051161,-0.033841,-0.033041,25.40353
5078,1712,0.651223,8.152257,4.994305,-0.043167,-0.027446,-0.031443,25.412354
5088,1785,0.548272,8.118738,5.003881,-0.039969,-0.014655,-0.019718,25.409412
5098,1761,0.526724,8.169016,4.99191,-0.033574,-0.005063,-0.001332,25.412354
5108,1722,0.593762,8.240842,4.936844,-0.026113,-0.02185,0.007994,25.421177
5118,1770,0.708684,8.185776,4.970363,-0.027979,-0.044499,0.011724,25.412354
5128,1808,0.837971,8.09719,5.058948,-0.027712,-0.053026,0.016787,25.412354
5138,1791,0.931344,8.044518,5.104438,-0.017054,-0.054891,0.015455,25.397648
5148,1778,0.950498,8.044518,5.078102,-0.010392,-0.060487,0.007727,25.400589
5158,1812,0.921768,8.137892,4.970363,-0.016787,-0.065017,-0.004796,25.40353
5168,1822,0.842759,8.188169,4.946421,-0.03011,-0.066882,-0.014922,25.397648
5178,1806,0.754174,8.195353,4.972757,-0.033841,-0.064484,-0.019718,25.406471
5188,1814,0.672771,8.147469,5.032612,-0.022649,-0.054625,-0.01732,25.397648
5198,1765,0.656011,8.085219,4.955997,-0.005596,-0.041035,-0.009326,25.397648
5208,1761,0.620098,8.025364,4.876989,-0.000533,-0.025847,0.000533,25.409412
5218,1791,0.646434,7.967903,4.826711,-0.012257,-0.009859,0.006129,25.415295
5228,1778,0.646434,7.94875,4.853047,-0.026113,0.00373,0.010392,25.400589
5238,1744,0.653617,7.946355,4.893748,-0.031176,0.013856,0.015455,25.409412
5248,1759,0.665588,8.015787,4.896142,-0.029044,0.023449,0.020784,25.409412
5258,1746,0.68953,8.034941,4.929661,-0.022916,0.03091,0.02638,25.397648
5268,1733,0.723049,8.030152,4.912902,-0.018919,0.034107,0.032508,25.400589
5278,1744,0.76375,7.989451,4.941632,-0.016787,0.031176,0.035972,25.409412
5288,1718,0.787692,7.94875,4.939238,-0.016787,0.025847,0.03011,25.412354
5298,1705,0.799663,7.910442,4.924873,-0.021051,0.020518,0.019452,25.415295
5308,1738,0.775721,7.905654,4.891354,-0.027979,0.016254,0.008793,25.424118
5318,1741,0.744597,7.958326,4.910508,-0.033574,0.014123,0.00373,25.427059
5328,1719,0.713472,8.02297,4.955997,-0.032508,0.010658,0.00453,25.427059
5338,1747,0.761356,8.078036,4.965574,-0.028511,0.006395,0.009593,25.412354
5348,1743,0.818817,8.075643,4.960786,-0.027179,0.000266,0.014123,25.415295
5358,1795,0.849942,8.080431,5.003881,-0.031709,-0.004263,0.014922,25.424118
5368,1920,0.890643,8.135497,5.046977,-0.03544,-0.004796,0.010392,25.412354
5378,1926,0.888249,8.212111,5.078102,-0.033308,-0.000533,0.005329,25.432941
5388,1956,0.881066,8.2169,5.123591,-0.021051,0.00373,-0.001332,25.424118
5398,2011,0.866701,8.197746,5.080496,-0.005862,0.007461,-0.009326,25.43
5408,1965,0.840365,8.195353,5.020641,0.002665,0.008527,-0.016254,25.432941
5418,1790,0.790087,8.185776,5.003881,0.000533,0.006662,-0.019985,25.415295
5428,1664,0.773327,8.159439,5.003881,-0.006662,0.001066,-0.018919,25.409412
5438,1622,0.794875,8.118738,5.001487,-0.011991,-0.00826,-0.015721,25.418236
5448,1636,0.773327,8.087613,4.994305,-0.014655,-0.014123,-0.013323,25.418236
5458,1648,0.756568,8.090008,4.999093,-0.018119,-0.018652,-0.007727,25.421177
5468,1611,0.749385,8.090008,4.941632,-0.022649,-0.023715,-0.001599,25.427059
5478,1660,0.739808,8.090008,4.953603,-0.026646,-0.025047,0.005596,25.424118
5488,1668,0.754174,8.123527,4.951209,-0.027446,-0.025047,0.010925,25.435883
5498,1678,0.797269,8.09719,4.965574,-0.025847,-0.03011,0.013856,25.415295
5508,1594,0.818817,8.044518,4.960786,-0.027712,-0.038904,0.010658,25.415295
5518,1291,0.830788,7.989451,4.953603,-0.031975,-0.041302,0.003198,25.406471
5528,2801,0.804452,7.97748,4.91769,-0.03544,-0.038637,-0.003997,25.427059
5538,4095,0.739808,8.010999,4.876989,-0.037305,-0.032775,-0.010658,25.418236
5548,4095,0.725443,8.075643,4.850653,-0.038371,-0.030643,-0.010658,25.412354
5558,977,0.701501,8.171411,4.88896,-0.035173,-0.032242,-0.002132,25.43
5568,1460,0.73502,8.286332,4.905719,-0.021317,-0.037838,0.008527,25.421177
5578,1774,0.818817,8.379706,4.893748,0.002665,-0.043167,0.013856,25.438824
5588,1677,0.85473,8.243237,4.884171,0.017853,-0.035173,0.015988,25.441765
5598,1699,0.864307,7.965509,4.979939,0.012524,-0.02185,0.021583,25.424118
5608,1693,0.873884,7.81228,4.939238,-0.006129,-0.017853,0.028245,25.441765
5618,1721,0.924162,7.78355,4.8722,-0.02558,-0.027446,0.024248,25.418236
5628,1724,0.907402,7.70933,4.927267,-0.044499,-0.038371,0.011991,25.427059
5638,1777,0.821211,7.716512,5.001487,-0.057289,-0.036505,0.002931,25.438824
5648,1765,0.723049,7.781156,5.039794,-0.060221,-0.022383,-0.001599,25.444706
5658,1798,0.632069,7.893683,5.013458,-0.061819,-0.008527,-0.000533,25.43
5668,1840,0.591368,7.994239,5.020641,-0.071145,0.005063,0.003198,25.421177
5678,1851,0.533907,8.090008,5.087678,-0.077274,0.015721,0.010126,25.418236
5688,1894,0.500388,8.180987,5.183447,-0.065017,0.02558,0.022116,25.421177
5698,1899,0.543484,8.192958,5.183447,-0.03917,0.031975,0.041568,25.424118
5708,1902,0.632069,8.111555,5.123591,-0.01732,0.038904,0.065816,25.435883
5718,1936,0.790087,8.027759,4.999093,-0.01732,0.043966,0.087666,25.421177
5728,1962,0.943315,7.955932,4.891354,-0.040236,0.044499,0.097792,25.427059
5738,2015,1.103727,7.951144,4.886566,-0.068481,0.044499,0.087666,25.435883
5748,2022,1.154005,7.991845,4.977545,-0.082603,0.0429,0.060221,25.427059
5758,2007,1.165976,8.027759,5.087678,-0.076475,0.039969,0.023715,25.418236
5768,1974,1.039083,8.044518,5.075707,-0.05649,0.040769,-0.007461,25.415295
5778,1933,0.830788,8.034941,5.05416,-0.039703,0.049828,-0.025047,25.418236
5788,1984,0.667982,8.032547,4.979939,-0.033841,0.059688,-0.023715,25.424118
5798,1935,0.545878,8.034941,4.8722,-0.038104,0.067415,-0.006395,25.438824
5808,1840,0.462081,8.027759,4.848258,-0.053026,0.068747,0.020784,25.447647
5818,1798,0.469264,8.037335,4.876989,-0.071145,0.068747,0.047164,25.441765
5828,1739,0.550666,8.008605,4.946421,-0.085534,0.066349,0.06555,25.432941
5838,1743,0.61531,7.965509,5.015852,-0.096992,0.066616,0.071145,25.438824
5848,1718,0.694318,7.987057,5.116409,-0.099124,0.059421,0.06555,25.438824
5858,1693,0.742203,8.02297,5.178658,-0.086334,0.04823,0.054358,25.453529
5868,1696,0.744597,8.042124,5.17387,-0.07008,0.050628,0.04743,25.444706
5878,1678,0.725443,8.145074,5.104438,-0.054358,0.058089,0.054092,25.447647
5888,1753,0.756568,8.161834,4.999093,-0.046631,0.054092,0.057289,25.444706
5898,1763,0.787692,8.090008,4.979939,-0.05276,0.042101,0.052227,25.450588
5908,1773,0.78051,8.034941,5.003881,-0.068747,0.037571,0.047697,25.432941
5918,1740,0.792481,8.013393,5.030218,-0.07008,0.031975,0.04823,25.459412
5928,1831,0.751779,8.008605,5.056554,-0.063152,0.022649,0.050361,25.462353
5938,1825,0.70629,8.025364,4.977545,-0.056757,0.010126,0.059421,25.444706
5948,1818,0.744597,8.075643,4.8722,-0.058888,0.006662,0.06928,25.43
5958,1822,0.775721,8.06846,4.893748,-0.06928,0.009859,0.076475,25.438824
5968,1826,0.794875,8.039729,4.951209,-0.07834,0.015721,0.081538,25.441765
5978,1861,0.828394,7.984663,5.070919,-0.078074,0.013323,0.084202,25.441765
5988,1828,0.88346,7.991845,5.106832,-0.068214,0.006395,0.081271,25.453529
5998,1853,0.919373,8.013393,5.104438,-0.056757,0.00373,0.071412,25.43
6008,1843,0.957681,7.991845,5.092467,-0.051427,0.009593,0.058622,25.444706
6018,1822,0.950498,7.972692,5.106832,-0.047963,0.021051,0.049562,25.447647
6028,1827,0.907402,7.967903,5.11162,-0.043433,0.031443,0.042634,25.444706
6038,1837,0.905008,7.987057,5.092467,-0.040769,0.03917,0.038637,25.438824
6048,1863,0.888249,8.046912,5.023035,-0.039703,0.046631,0.040769,25.45647
6058,1845,0.90022,8.116343,5.061342,-0.042368,0.049562,0.046631,25.447647
6068,1831,0.938527,8.137892,5.106832,-0.043167,0.046098,0.055691,25.453529
6078,1856,0.97444,8.073248,5.200206,-0.040769,0.041302,0.062352,25.447647
6088,1846,0.988805,8.001422,5.260061,-0.033574,0.037838,0.064217,25.43
6098,1840,0.979228,7.97748,5.260061,-0.024515,0.03091,0.059155,25.432941
6108,1839,0.964863,8.063671,5.154716,-0.015455,0.022383,0.047164,25.45647
6118,1808,0.936133,8.259995,4.996699,-0.004263,0.017587,0.031443,25.447647
6128,1904,0.828394,8.384495,4.994305,0.009859,0.018119,0.016521,25.450588
6138,1885,0.711078,8.365341,5.080496,0.028245,0.016787,0.010126,25.444706
6148,1841,0.648829,8.257602,5.17387,0.04823,0.009859,0.011458,25.444706
6158,1853,0.622492,8.157045,5.12838,0.064484,0.001332,0.026113,25.45647
6168,1836,0.667982,8.111555,5.013458,0.062619,-0.001332,0.049296,25.462353
6178,1891,0.730232,8.09719,4.972757,0.04823,0.00453,0.075675,25.450588
6188,1847,0.830788,8.066066,5.011064,0.035706,0.009593,0.097525,25.447647
6198,2002,0.924162,8.00621,5.056554,0.037571,0.01279,0.106585,25.453529
6208,2063,0.991199,7.958326,4.982334,0.044499,0.017054,0.101256,25.441765
6218,2035,1.034295,7.900866,4.8722,0.045032,0.021051,0.081538,25.45647
6228,2157,1.017536,7.843405,4.812346,0.033841,0.022116,0.058089,25.462353
6238,2128,0.955287,7.795521,4.824317,0.010126,0.018652,0.035173,25.459412
6248,2063,0.909797,7.848193,4.860229,-0.010658,0.017054,0.022383,25.45647
6258,1808,0.847547,7.965509,4.939238,-0.018919,0.022383,0.024781,25.453529
6268,1798,0.830788,8.049306,5.030218,-0.01359,0.029577,0.041302,25.453529
6278,1759,0.876278,8.044518,5.092467,-0.005329,0.031709,0.062352,25.465294
6288,1737,0.938527,8.051701,5.035006,0.002132,0.029044,0.06928,25.453529
6298,1803,0.981623,8.051701,4.922479,0.002665,0.023982,0.056757,25.450588
6308,1783,1.024718,8.049306,4.908113,-0.001865,0.01732,0.034907,25.453529
6318,1770,1.015141,7.967903,4.99191,-0.006395,0.012524,0.014123,25.459412
6328,1823,0.967257,7.860164,5.0374,-0.007994,0.00906,0.000533,25.468235
6338,1877,0.895431,7.817069,4.989516,-0.010126,0.010392,-0.007194,25.453529
6348,1795,0.861913,7.905654,4.88896,-0.020784,0.008793,-0.010658,25.459412
6358,1577,0.859518,7.955932,4.869806,-0.038371,-0.000266,-0.01359,25.453529
6368,3104,0.840365,7.960721,4.915296,-0.050361,-0.009593,-0.014655,25.453529
6378,4095,0.842759,7.953538,4.989516,-0.049029,-0.011458,-0.014655,25.441765
6388,4095,0.842759,8.042124,4.979939,-0.037838,-0.007194,-0.015455,25.459412
6398,1018,0.869095,8.092402,4.896142,-0.026913,-0.00373,-0.021317,25.45647
6408,1638,0.885855,8.085219,4.817134,-0.023182,-0.006928,-0.029577,25.468235
6418,1981,0.902614,8.032547,4.790798,-0.027446,-0.016254,-0.0437,25.447647
6428,1908,0.912191,7.893683,4.826711,-0.039436,-0.020251,-0.060753,25.447647
6438,1900,0.873884,7.706935,4.939238,-0.060753,-0.01359,-0.071145,25.447647
6448,1935,0.804452,7.778761,4.951209,-0.074343,-0.004796,-0.071145,25.441765
6458,1949,0.806846,8.02297,4.927267,-0.07834,-0.004796,-0.06102,25.45647
6468,1968,0.828394,8.080431,5.032612,-0.081804,-0.013057,-0.042634,25.474117
6478,1996,0.837971,8.027759,5.142745,-0.077807,-0.014123,-0.019718,25.477058
6488,1999,0.866701,7.965509,5.166687,-0.065017,-0.006129,0.000799,25.459412
6498,2020,0.931344,7.967903,5.078102,-0.061553,-0.002398,0.009593,25.459412
6508,2061,1.000776,8.030152,5.044583,-0.076208,-0.007994,0.00373,25.482941
6518,2112,1.041478,8.135497,5.097255,-0.090597,-0.014389,-0.012257,25.468235
6528,2161,0.995988,8.204929,5.228937,-0.077541,-0.015721,-0.029844,25.465294
6538,2158,0.88346,8.161834,5.315128,-0.046897,-0.011991,-0.039703,25.468235
6548,2160,0.744597,8.066066,5.181053,-0.021317,-0.002931,-0.038371,25.471176
6558,2192,0.672771,7.979874,4.975151,-0.022916,0.010392,-0.02638,25.471176
6568,2224,0.636858,7.991845,4.855441,-0.048496,0.018652,-0.004263,25.474117
6578,2253,0.656011,8.042124,4.829105,-0.076208,0.018119,0.020784,25.474117
6588,2230,0.756568,8.109161,4.987122,-0.085801,0.016787,0.038637,25.462353
6598,2256,0.837971,8.166622,5.11162,-0.070879,0.015455,0.0429,25.465294
6608,2240,0.90022,8.123527,5.135562,-0.045032,0.012257,0.032508,25.462353
6618,2210,0.916979,8.037335,5.08289,-0.025847,0.00826,0.012524,25.468235
6628,2228,0.907402,7.939173,4.999093,-0.02558,0.003198,-0.004263,25.477058
6638,2188,0.840365,7.920019,4.91769,-0.038637,0.002132,-0.012524,25.462353
6648,2143,0.768539,7.991845,4.898537,-0.055424,0.005862,-0.012257,25.468235
6658,2109,0.732626,8.058883,4.944026,-0.064217,0.007727,-0.001066,25.488823
6668,2066,0.732626,8.061277,4.996699,-0.06102,0.007194,0.00906,25.468235
6678,1984,0.778116,8.032547,5.030218,-0.055957,0.007194,0.01359,25.48
6688,1954,0.814029,7.967903,5.051765,-0.057289,0.00826,0.010658,25.474117
6698,1939,0.806846,7.867347,5.058948,-0.067149,0.014123,0.006662,25.485882
6708,1933,0.749385,7.900866,5.063736,-0.076741,0.024248,0.009593,25.477058
6718,1920,0.739808,8.054094,5.003881,-0.075142,0.025047,0.014123,25.48
6728,1933,0.770933,8.092402,4.977545,-0.074077,0.011724,0.007994,25.488823
6738,1941,0.787692,7.982268,5.046977,-0.081538,0.00453,-0.001332,25.488823
6748,1961,0.792481,7.97748,5.070919,-0.084202,0.007994,-0.007194,25.474117
6758,1955,0.790087,8.030152,5.05416,-0.075409,0.011724,-0.014655,25.48
6768,1950,0.723049,8.042124,5.056554,-0.066616,0.010392,-0.020518,25.474117
6778,1971,0.656011,8.010999,5.013458,-0.056224,0.01359,-0.016521,25.477058
6788,1938,0.629675,8.010999,4.970363,-0.059688,0.021583,-0.003997,25.488823
6798,1951,0.646434,8.042124,4.929661,-0.076741,0.023715,0.01279,25.474117
6808,1942,0.713472,8.066066,5.044583,-0.093528,0.022649,0.027979,25.485882
6818,1926,0.797269,8.046912,5.152322,-0.096726,0.021051,0.033308,25.482941
6828,1897,0.857124,8.020576,5.24809,-0.085268,0.014389,0.02638,25.482941
6838,1911,0.864307,8.013393,5.240908,-0.070613,0.010392,0.012257,25.491764
6848,1919,0.823605,8.042124,5.188235,-0.060753,0.011991,-0.002398,25.500587
6858,1881,0.744597,8.054094,5.152322,-0.057822,0.017853,-0.005862,25.494705
6868,1873,0.675165,8.075643,5.094861,-0.058888,0.023449,0.001599,25.488823
6878,1887,0.656011,8.058883,5.123591,-0.061286,0.028778,0.015988,25.494705
6888,1887,0.646434,7.999028,5.152322,-0.062619,0.030643,0.030643,25.503529
6898,1869,0.687136,7.951144,5.123591,-0.064217,0.029311,0.040236,25.491764
6908,1891,0.751779,7.891289,5.121197,-0.069014,0.02558,0.045565,25.474117
6918,1891,0.847547,7.843405,5.149928,-0.075142,0.02185,0.043433,25.459412
6928,1868,0.85473,7.836222,5.140351,-0.076475,0.017853,0.035972,25.471176
6938,1882,0.869095,7.821857,5.188235,-0.072211,0.015188,0.024248,25.48
6948,1879,0.818817,7.836222,5.149928,-0.064217,0.01732,0.012524,25.482941
6958,1893,0.766145,7.833828,5.116409,-0.059155,0.021051,0.006395,25.468235
6968,1878,0.718261,7.852982,5.116409,-0.059421,0.028245,0.005596,25.477058
6978,1890,0.651223,7.881712,5.159505,-0.060753,0.033841,0.013856,25.477058
6988,1898,0.629675,7.891289,5.214571,-0.061286,0.03917,0.026913,25.462353
6998,1890,0.665588,7.900866,5.233725,-0.06102,0.0437,0.042368,25.477058
7008,1882,0.742203,7.924808,5.228937,-0.059688,0.046098,0.052227,25.488823
7018,1895,0.785298,7.910442,5.228937,-0.058355,0.044499,0.053559,25.494705
7028,1959,0.835576,7.917625,5.236119,-0.057289,0.040502,0.049828,25.48
7038,2057,0.849942,7.953538,5.221754,-0.054891,0.037038,0.041835,25.494705
7048,2084,0.859518,7.951144,5.233725,-0.051161,0.032775,0.033841,25.48
7058,2144,0.828394,7.955932,5.260061,-0.04743,0.027712,0.02638,25.468235
7068,2174,0.826,7.987057,5.257667,-0.042634,0.018119,0.019185,25.485882
7078,2117,0.873884,8.001422,5.243302,-0.036239,-0.004263,0.002398,25.48
7088,1978,0.876278,7.960721,5.274426,-0.026913,-0.018119,-0.015455,25.465294
7098,1870,0.823605,7.845799,5.334281,-0.010925,-0.005862,-0.019452,25.474117
7108,1833,0.758962,7.802703,5.312734,-0.000533,0.004796,-0.01359,25.482941
7118,1850,0.73502,7.852982,5.195418,-0.005063,0.006662,-0.005329,25.509411
7128,1840,0.727837,7.960721,5.133168,-0.018652,0.005329,0.00373,25.500587
7138,1858,0.708684,7.97748,5.176264,-0.030377,0.009859,0.012257,25.48
7148,1855,0.68953,7.874529,5.272032,-0.032242,0.021317,0.02185,25.474117
7158,1872,0.703895,7.817069,5.305551,-0.026113,0.033041,0.031443,25.482941
7168,1866,0.720655,7.893683,5.214571,-0.023449,0.035972,0.037305,25.48
7178,1872,0.78051,7.934384,5.097255,-0.030377,0.03091,0.037038,25.48
7188,1527,0.873884,7.989451,5.068525,-0.041302,0.022116,0.030377,25.497646
7198,2096,0.957681,7.989451,5.12838,-0.048496,0.005329,0.021583,25.500587
7208,4095,1.027112,7.967903,5.216966,-0.043167,-0.010925,0.007727,25.497646
7218,4095,1.007959,7.987057,5.226542,-0.024248,-0.014389,-0.011458,25.488823
7228,2499,0.936133,8.075643,5.154716,-0.00373,-0.00826,-0.025847,25.488823
7238,1374,0.845153,8.135497,5.121197,0.010925,-0.006129,-0.031975,25.497646
7248,1962,0.742203,8.204929,5.070919,0.020518,-0.003198,-0.029311,25.491764
7258,1916,0.653617,8.140285,5.140351,0.022116,0.006662,-0.015721,25.482941
7268,1934,0.59855,7.951144,5.274426,0.01359,0.023982,0.010392,25.485882
7278,1936,0.605733,7.8865,5.21936,0.003464,0.032508,0.03464,25.494705
7288,1957,0.701501,7.958326,5.087678,-0.002665,0.025314,0.042101,25.488823
7298,2031,0.814029,7.955932,5.051765,-0.018919,0.011191,0.030643,25.491764
7308,2019,0.871489,7.908048,5.114015,-0.034374,-0.002665,0.009593,25.500587
7318,2059,0.902614,7.867347,5.159505,-0.035972,-0.010658,-0.016521,25.491764
7328,2094,0.871489,7.848193,5.104438,-0.031709,-0.015721,-0.042101,25.482941
7338,2113,0.833182,7.862558,5.020641,-0.034107,-0.018652,-0.061819,25.515295
7348,2134,0.730232,7.912837,5.080496,-0.039969,-0.018386,-0.071945,25.497646
7358,2167,0.612916,7.967903,5.121197,-0.037838,-0.015721,-0.068214,25.48
7368,2192,0.505177,8.02297,5.200206,-0.02638,-0.01279,-0.052227,25.485882
7378,2224,0.452504,8.008605,5.245696,-0.010392,-0.007994,-0.024515,25.488823
7388,2260,0.4956,7.970297,5.21936,-0.001066,-0.006395,0.004796,25.491764
7398,2281,0.581791,7.963115,5.188235,-0.005329,-0.003464,0.02638,25.491764
7408,2310,0.699107,7.991845,5.212177,-0.014922,-0.005329,0.039436,25.485882
7418,2335,0.806846,8.015787,5.284003,-0.013323,-0.009326,0.039969,25.497646
7428,2343,0.849942,7.994239,5.334281,0.000266,-0.015721,0.03091,25.482941
7438,2337,0.864307,7.972692,5.298368,0.017853,-0.019185,0.015455,25.488823
7448,2309,0.818817,7.924808,5.200206,0.030643,-0.017054,-0.001066,25.497646
7458,2318,0.746991,7.900866,5.078102,0.031709,-0.01359,-0.01359,25.494705
7468,2315,0.696713,7.896077,5.032612,0.020251,-0.010658,-0.016787,25.488823
7478,2235,0.667982,7.884106,5.023035,0.002132,-0.010392,-0.010658,25.488823
7488,2190,0.679953,7.90326,5.078102,-0.010392,-0.011724,0.000799,25.503529
7498,2097,0.739808,7.920019,5.102044,-0.01359,-0.013057,0.009593,25.500587
7508,2032,0.804452,7.908048,5.135562,-0.009326,-0.010126,0.010658,25.500587
7518,1987,0.835576,7.908048,5.137957,-0.005596,-0.007994,-0.000533,25.497646
7528,1983,0.845153,7.888895,5.106832,-0.007994,-0.006395,-0.019452,25.500587
7538,1971,0.797269,7.876924,5.090073,-0.013323,-0.00453,-0.037571,25.494705
7548,1961,0.711078,7.860164,5.094861,-0.019185,0.001332,-0.044499,25.491764
7558,1920,0.648829,7.975086,5.051765,-0.014922,0.004263,-0.039703,25.503529
7568,1957,0.648829,8.051701,5.063736,-0.009593,-0.002931,-0.032508,25.512352
7578,1987,0.672771,7.987057,5.073313,-0.014123,-0.007461,-0.025314,25.515295
7588,1981,0.699107,7.970297,5.092467,-0.021583,-0.005596,-0.019718,25.521177
7598,1977,0.737414,7.967903,5.11162,-0.021051,-0.005596,-0.026913,25.503529
7608,1989,0.713472,7.951144,5.114015,-0.015721,-0.001066,-0.026113,25.50647
7618,1997,0.684742,7.939173,5.049371,-0.015988,0,-0.029311,25.497646
7628,2023,0.653617,7.946355,4.972757,-0.026646,0.002665,-0.031176,25.515295
7638,1993,0.656011,7.984663,4.996699,-0.041835,0.006662,-0.026913,25.497646
7648,2012,0.646434,8.032547,5.066131,-0.045832,0.009593,-0.019185,25.503529
7658,1989,0.639252,8.06846,5.161899,-0.037838,0.003198,-0.007994,25.524118
7668,2000,0.667982,8.037335,5.183447,-0.023182,-0.004263,-0.002132,25.521177
7678,1979,0.694318,7.970297,5.171476,-0.011991,-0.009326,-0.001332,25.50647
7688,1973,0.677559,7.951144,5.149928,-0.007727,-0.010658,-0.003997,25.515295
7698,1968,0.667982,7.953538,5.116409,-0.009859,-0.00826,-0.009859,25.530001
7708,1946,0.6608,8.013393,5.078102,-0.013856,-0.002665,-0.015188,25.515295
7718,1970,0.648829,8.078036,5.104438,-0.014389,0.002132,-0.016254,25.50647
7728,1965,0.653617,8.09719,5.133168,-0.010392,0.005329,-0.014123,25.494705
7738,1945,0.646434,8.06846,5.130774,-0.002132,0.010126,-0.009859,25.512352
7748,1934,0.675165,8.06846,5.056554,0.007727,0.011191,-0.011191,25.515295
7758,1947,0.718261,8.010999,4.989516,0.011191,0.011458,-0.005862,25.518236
7768,1973,0.744597,7.989451,4.912902,0.002398,0.001599,-0.00453,25.50647
7778,1966,0.751779,7.955932,4.939238,-0.010925,-0.003997,-0.009859,25.500587
7788,1949,0.766145,7.970297,5.011064,-0.018919,-0.006928,-0.014922,25.512352
7798,1955,0.749385,8.02297,5.066131,-0.014389,-0.011191,-0.020251,25.50647
7808,1950,0.730232,8.085219,5.078102,-0.00373,-0.009859,-0.02638,25.518236
7818,1970,0.687136,8.061277,5.063736,0.005063,0.000266,-0.031176,25.494705
7828,1999,0.677559,8.010999,5.039794,0.006928,0.017587,-0.037571,25.509411
7838,2093,0.658405,7.934384,5.046977,0.002665,0.028511,-0.024248,25.515295
7848,2128,0.629675,7.893683,5.046977,-0.012524,0.024781,-0.011991,25.52706
7858,2171,0.624887,7.934384,5.085284,-0.02558,0.027712,-0.005063,25.524118
7868,2173,0.617704,7.989451,5.087678,-0.032508,0.032508,-0.001066,25.515295
7878,2112,0.59855,8.003817,5.130774,-0.027179,0.031176,0.000533,25.497646
7888,2009,0.620098,8.02297,5.133168,-0.016787,0.031709,-0.001332,25.524118
7898,1919,0.629675,8.015787,5.073313,-0.00373,0.026113,-0.001332,25.509411
7908,1872,0.641646,8.042124,4.965574,0.000533,0.012257,0.001332,25.509411
7918,1858,0.641646,8.018182,4.884171,-0.007461,0,0.00373,25.512352
7928,1898,0.624887,7.972692,4.865018,-0.022383,0,0.002665,25.524118
7938,1899,0.608127,7.939173,4.93445,-0.037038,0.005063,0.002398,25.518236
7948,1899,0.591368,7.963115,5.013458,-0.04743,0.015188,0.006129,25.509411
7958,1907,0.588974,8.02297,5.070919,-0.048763,0.02558,0.009326,25.512352
7968,1933,0.56982,8.078036,5.130774,-0.040502,0.031443,0.011191,25.518236
7978,1776,0.565032,8.092402,5.130774,-0.031975,0.033574,0.014389,25.503529
7988,1663,0.548272,8.070854,5.08289,-0.02558,0.030643,0.018386,25.500587
7998,3642,0.54109,8.044518,5.058948,-0.023182,0.024248,0.019452,25.515295
8008,4095,0.543484,8.06846,5.011064,-0.025047,0.020784,0.025314,25.524118
8018,4055,0.56982,8.09719,5.006276,-0.02558,0.012524,0.032775,25.512352
8028,1003,0.553061,8.11395,5.058948,-0.025314,0.002665,0.037038,25.530001
8038,1728,0.584185,8.118738,5.12838,-0.020518,-0.005063,0.038904,25.535883
8048,1943,0.620098,8.121132,5.190629,-0.008793,-0.010392,0.039436,25.515295
8058,1903,0.605733,8.025364,5.245696,0.000533,-0.006662,0.041568,25.512352
8068,1882,0.567426,7.805098,5.295974,-0.001599,0.002132,0.051427,25.521177
8078,1911,0.596156,7.745243,5.183447,-0.005862,0.003997,0.058089,25.515295
8088,1894,0.667982,7.826645,4.896142,-0.012524,-0.008793,0.04743,25.52706
8098,1942,0.708684,7.888895,4.690241,-0.028511,-0.014655,0.024781,25.515295
8108,1936,0.656011,7.862558,4.661511,-0.04823,-0.004796,0.009593,25.532942
8118,1956,0.600945,7.785944,4.711789,-0.071145,0.003198,0.005063,25.532942
8128,1959,0.586579,7.809886,4.685453,-0.095394,-0.000266,0.007194,25.538824
8138,1985,0.553061,7.8865,4.675876,-0.123372,0.001332,0.009326,25.524118
8148,2002,0.488417,7.939173,4.774038,-0.143357,0.019452,0.014655,25.52706
8158,2026,0.440533,7.97748,4.955997,-0.14389,0.040502,0.023182,25.518236
8168,2025,0.395043,7.984663,5.073313,-0.130567,0.051161,0.038104,25.535883
8178,2062,0.373495,7.987057,5.075707,-0.11751,0.051427,0.061553,25.538824
8188,2074,0.426168,7.953538,5.015852,-0.116178,0.054092,0.085268,25.52706
8198,2107,0.531513,7.915231,4.953603,-0.130833,0.055957,0.100723,25.52706
8208,2111,0.608127,7.924808,4.972757,-0.154548,0.058622,0.103387,25.515295
8218,2127,0.651223,7.999028,5.066131,-0.166273,0.064484,0.096992,25.535883
8228,2117,0.648829,8.054094,5.123591,-0.16121,0.068214,0.087933,25.532942
8238,2094,0.627281,8.049306,5.181053,-0.144423,0.06555,0.081538,25.532942
8248,2119,0.579397,7.999028,5.185841,-0.129501,0.063685,0.080472,25.535883
8258,2065,0.560243,7.989451,5.17387,-0.122306,0.062352,0.082603,25.52706
8268,2001,0.543484,7.996634,5.140351,-0.12204,0.062352,0.089265,25.52706
8278,1920,0.596156,8.013393,5.133168,-0.119908,0.057822,0.096459,25.541765
8288,1825,0.699107,8.034941,5.152322,-0.114579,0.051161,0.099923,25.547647
8298,1738,0.799663,8.106767,5.207389,-0.106851,0.041035,0.095127,25.532942
8308,1683,0.902614,8.171411,5.303157,-0.095127,0.03091,0.083936,25.535883
8318,1631,0.967257,8.286332,5.415684,-0.076741,0.028778,0.067948,25.530001
8328,1637,0.969652,8.350976,5.533,-0.047697,0.028245,0.053825,25.515295
8338,1616,0.890643,8.315063,5.540183,-0.01732,0.033308,0.04823,25.512352
8348,1603,0.775721,8.204929,5.523423,0.00826,0.042634,0.058888,25.524118
8358,1618,0.727837,8.075643,5.391742,0.025847,0.044499,0.071145,25.518236
8368,1648,0.730232,7.939173,5.21936,0.02638,0.039436,0.071678,25.524118
8378,1635,0.713472,7.781156,5.147533,0.007727,0.034107,0.066349,25.52706
8388,1628,0.648829,7.682993,5.161899,-0.012257,0.038371,0.054092,25.541765
8398,1645,0.588974,7.673417,5.190629,-0.011458,0.048763,0.049828,25.518236
8408,1665,0.52433,7.673417,5.169082,0.001865,0.053559,0.057023,25.52706
8418,1703,0.517148,7.757214,5.05416,0.003198,0.049562,0.071678,25.524118
8428,1671,0.560243,7.81228,5.027823,-0.015721,0.046098,0.087133,25.521177
8438,1680,0.682347,7.797915,5.109226,-0.035173,0.043433,0.096992,25.521177
8448,1695,0.806846,7.802703,5.231331,-0.043966,0.039703,0.096459,25.532942
8458,1701,0.919373,7.802703,5.269638,-0.040769,0.033841,0.08287,25.535883
8468,1716,0.936133,7.809886,5.300763,-0.029844,0.032775,0.058355,25.541765
8478,1667,0.885855,7.82904,5.255273,-0.018386,0.037038,0.03464,25.544706
8488,1690,0.804452,7.821857,5.183447,-0.010392,0.0437,0.021051,25.518236
8498,1680,0.725443,7.864953,5.12838,-0.006928,0.046364,0.022383,25.52706
8508,1698,0.723049,7.874529,5.058948,-0.00906,0.044766,0.031443,25.530001
8518,1702,0.725443,7.841011,5.061342,-0.013856,0.042634,0.040502,25.532942
8528,1712,0.787692,7.819463,5.140351,-0.014389,0.03917,0.043433,25.535883
8538,1719,0.866701,7.800309,5.185841,-0.010658,0.03011,0.037838,25.538824
8548,1718,0.902614,7.778761,5.200206,-0.005862,0.017587,0.024781,25.541765
8558,1716,0.936133,7.814674,5.145139,-0.003198,0.010658,0.007461,25.52706
8568,1749,0.852336,7.81228,5.135562,-0.006928,0.005063,-0.007727,25.52706
8578,1753,0.766145,7.826645,5.140351,-0.013323,0.002931,-0.013856,25.521177
8588,1790,0.732626,7.843405,5.169082,-0.017587,0.005063,-0.010126,25.530001
8598,1898,0.691924,7.881712,5.171476,-0.020251,0.006928,0.000533,25.52706
8608,1920,0.684742,7.910442,5.106832,-0.025314,0.005862,0.009326,25.518236
8618,2047,0.70629,7.958326,5.099649,-0.031975,0.001066,0.010392,25.541765
8628,2030,0.718261,8.001422,5.149928,-0.03464,-0.000533,0.005063,25.547647
8638,2007,0.739808,8.027759,5.207389,-0.029844,-0.001332,0.000266,25.518236
8648,1890,0.766145,8.061277,5.24809,-0.023182,-0.004263,-0.001332,25.52706
8658,1750,0.818817,8.06846,5.233725,-0.016787,-0.005063,0,25.521177
8668,1730,0.878672,8.058883,5.212177,-0.013057,-0.00453,0.003464,25.541765
8678,1713,0.924162,8.013393,5.200206,-0.012524,-0.005329,0.002931,25.544706
8688,1717,0.962469,7.982268,5.133168,-0.016787,-0.005329,-0.003464,25.52706
8698,1744,0.962469,7.965509,5.12838,-0.018919,-0.005862,-0.017054,25.538824
8708,1734,0.888249,7.982268,5.135562,-0.021051,-0.009326,-0.031975,25.521177
8718,1752,0.78051,7.987057,5.099649,-0.022383,-0.013057,-0.039969,25.518236
8728,1777,0.6608,7.975086,5.11162,-0.023449,-0.015188,-0.037838,25.532942
8738,1691,0.574608,7.979874,5.166687,-0.025047,-0.015188,-0.027446,25.535883
8748,1440,0.533907,7.984663,5.142745,-0.027712,-0.016787,-0.008793,25.538824
8758,2853,0.574608,7.965509,5.097255,-0.032508,-0.018386,0.00826,25.524118
8768,4095,0.612916,7.987057,5.070919,-0.036239,-0.018386,0.021317,25.538824
8778,4095,0.699107,7.970297,5.042189,-0.038904,-0.021317,0.027446,25.535883
8788,1031,0.761356,7.967903,5.042189,-0.036239,-0.025047,0.026913,25.541765
8798,1449,0.818817,7.967903,5.056554,-0.03091,-0.027446,0.021583,25.532942
8808,1845,0.816423,8.018182,5.05416,-0.024515,-0.031975,0.011458,25.541765
8818,1797,0.756568,8.030152,5.106832,-0.02185,-0.03011,-0.000266,25.521177
8828,1792,0.665588,7.881712,5.207389,-0.023715,-0.025847,-0.00453,25.515295
8838,1822,0.59855,7.733272,5.233725,-0.033041,-0.024781,-0.002398,25.538824
8848,1802,0.565032,7.73806,5.114015,-0.039969,-0.033041,0.002398,25.530001
8858,1806,0.538695,7.881712,5.032612,-0.048763,-0.035173,-0.00373,25.538824
8868,1865,0.529119,7.936779,5.063736,-0.054625,-0.027712,-0.001066,25.532942
8878,1872,0.548272,7.905654,5.135562,-0.054092,-0.018386,0.010925,25.52706
8888,1874,0.632069,7.860164,5.049371,-0.054891,-0.01732,0.023982,25.544706
8898,1906,0.78051,7.831434,4.908113,-0.072478,-0.020518,0.024248,25.541765
8908,1927,0.893037,7.836222,4.922479,-0.096193,-0.023182,0.009593,25.538824
8918,1921,0.921768,7.838616,5.102044,-0.106851,-0.020251,-0.01279,25.538824
8928,1972,0.864307,7.872135,5.279215,-0.094861,-0.018652,-0.034907,25.541765
8938,2005,0.787692,7.93199,5.26485,-0.071678,-0.023982,-0.044233,25.541765
8948,1999,0.713472,7.963115,5.188235,-0.060753,-0.02558,-0.037038,25.530001
8958,2015,0.670376,7.941567,5.149928,-0.06928,-0.018919,-0.019985,25.535883
8968,2054,0.70629,7.967903,5.171476,-0.08287,-0.00906,-0.005063,25.55353
8978,2015,0.758962,8.013393,5.212177,-0.087133,-0.00453,0.002665,25.544706
8988,2033,0.797269,8.073248,5.262455,-0.07834,-0.00453,-0.000533,25.535883
8998,2033,0.782904,8.11395,5.343858,-0.058089,-0.00373,-0.009593,25.530001
9008,1999,0.715866,8.073248,5.372589,-0.036505,-0.002398,-0.011991,25.547647
9018,1979,0.646434,8.003817,5.370194,-0.02185,0.001332,-0.003464,25.550589
9028,1918,0.605733,7.917625,5.307945,-0.016521,0.005063,0.013856,25.547647
9038,1830,0.610521,7.845799,5.327099,-0.019985,0.008527,0.027979,25.556471
9048,1716,0.627281,7.817069,5.269638,-0.027179,0.006662,0.037305,25.541765
9058,1647,0.648829,7.807492,5.224148,-0.034907,0.005862,0.040236,25.559412
9068,1571,0.687136,7.800309,5.207389,-0.039969,0.005862,0.03464,25.535883
9078,1529,0.703895,7.850587,5.216966,-0.038637,0.003997,0.025047,25.544706
9088,1511,0.732626,7.881712,5.190629,-0.033841,-0.001865,0.016787,25.532942
9098,1472,0.739808,7.869741,5.193024,-0.03091,-0.011458,0.012524,25.535883
9108,1499,0.742203,7.872135,5.152322,-0.031709,-0.015188,0.016521,25.538824
9118,1475,0.761356,7.896077,5.094861,-0.034374,-0.016787,0.020518,25.538824
9128,1503,0.826,7.970297,5.056554,-0.041568,-0.025847,0.011724,25.547647
9138,1519,0.878672,7.991845,5.157111,-0.055957,-0.03091,-0.007461,25.547647
9148,1513,0.849942,7.999028,5.370194,-0.056224,-0.02558,-0.029044,25.556471
9158,1520,0.742203,7.984663,5.439626,-0.028511,-0.015988,-0.04823,25.55353
9168,1552,0.59855,7.963115,5.355829,0.005329,-0.00826,-0.053825,25.530001
9178,1535,0.47884,7.958326,5.145139,0.015455,-0.001332,-0.040236,25.535883
9188,1513,0.469264,7.920019,4.960786,-0.00826,0.002398,-0.016521,25.547647
9198,1534,0.517148,7.891289,5.035006,-0.042101,0.007461,0.006662,25.538824
9208,1522,0.639252,7.917625,5.214571,-0.055158,0.006129,0.020784,25.550589
9218,1529,0.758962,7.972692,5.305551,-0.03917,-0.00453,0.020518,25.565294
9228,1520,0.857124,7.970297,5.327099,-0.010658,-0.016254,0.007727,25.547647
9238,1491,0.876278,7.924808,5.255273,0.009859,-0.021051,-0.010925,25.55353
9248,1517,0.826,7.876924,5.178658,0.015988,-0.023182,-0.025314,25.535883
9258,1520,0.732626,7.864953,5.135562,0.007194,-0.020784,-0.031443,25.55353
9268,1509,0.646434,7.924808,5.145139,-0.007194,-0.015455,-0.028245,25.544706
9278,1489,0.579397,7.989451,5.169082,-0.01359,-0.01359,-0.017587,25.550589
9288,1515,0.574608,7.999028,5.185841,-0.011191,-0.012524,-0.003997,25.544706
9298,1515,0.591368,7.972692,5.200206,-0.002132,-0.011724,0.00453,25.556471
9308,1488,0.64404,7.946355,5.147533,0.003198,-0.011191,0.007461,25.535883
9318,1517,0.679953,7.934384,5.12838,0.003464,-0.012524,0.006928,25.530001
9328,1527,0.699107,7.917625,5.075707,-0.001066,-0.014922,0.00906,25.544706
9338,1518,0.70629,7.867347,5.106832,-0.007994,-0.018119,0.010392,25.556471
9348,1522,0.737414,7.850587,5.12838,-0.012524,-0.024248,0.010126,25.550589
9358,1585,0.782904,7.876924,5.123591,-0.014922,-0.032242,0.00906,25.550589
9368,1712,0.775721,7.90326,5.137957,-0.014655,-0.038637,0.007194,25.541765
9378,1763,0.758962,7.936779,5.135562,-0.013057,-0.042101,0.006395,25.541765
9388,1787,0.754174,7.922413,5.125986,-0.016254,-0.044233,0.009326,25.547647
9398,1875,0.723049,7.929596,5.145139,-0.020784,-0.046098,0.011458,25.55353
9408,1827,0.73502,7.970297,5.133168,-0.025314,-0.047963,0.016521,25.571177
9418,1662,0.703895,7.982268,5.123591,-0.029577,-0.04823,0.020251,25.550589
9428,1566,0.677559,8.003817,5.135562,-0.031443,-0.046631,0.022383,25.556471
9438,1508,0.641646,8.027759,5.154716,-0.02638,-0.038371,0.023182,25.538824
9448,1482,0.591368,8.039729,5.125986,-0.017054,-0.02558,0.023449,25.547647
9458,1493,0.555455,8.066066,5.106832,-0.010126,-0.009326,0.03011,25.541765
9468,1522,0.533907,8.090008,5.094861,-0.011191,0.008793,0.042101,25.541765
9478,1494,0.543484,8.082825,5.142745,-0.01359,0.020784,0.064217,25.556471
9488,1559,0.610521,8.075643,5.17387,-0.016254,0.022383,0.080738,25.556471
9498,1586,0.667982,8.080431,5.185841,-0.014922,0.023449,0.092196,25.562353
9508,1565,0.718261,8.039729,5.207389,-0.010925,0.03091,0.096992,25.556471
9518,1253,0.742203,7.934384,5.245696,-0.007994,0.037838,0.103121,25.559412
9528,1868,0.770933,7.848193,5.221754,-0.010392,0.046098,0.111648,25.55353
9538,4095,0.790087,7.821857,5.125986,-0.018119,0.054625,0.118576,25.541765
9548,4095,0.857124,7.908048,5.025429,-0.024515,0.053292,0.116711,25.571177
9558,1661,0.948104,8.066066,5.00867,-0.028511,0.037838,0.103654,25.559412
9568,1043,1.031901,8.164227,5.00867,-0.026113,0.005063,0.075142,25.547647
9578,1670,1.11091,8.195353,5.075707,-0.013323,-0.029844,0.036239,25.55353
9588,1584,1.096544,8.101978,5.200206,0.00826,-0.044499,-0.002665,25.55353
9598,1559,0.988805,7.872135,5.279215,0.017054,-0.037305,-0.020784,25.577059
9608,1555,0.833182,7.78355,5.185841,0.015455,-0.020518,-0.019985,25.55353
9618,1591,0.732626,7.855376,4.996699,0.008527,-0.011724,-0.011991,25.55353
9628,1615,0.701501,7.879318,4.953603,-0.004263,-0.02185,-0.003997,25.547647
9638,1623,0.725443,7.82904,4.994305,-0.019452,-0.033041,0.001599,25.565294
9648,1634,0.761356,7.807492,5.013458,-0.027179,-0.038104,0.00453,25.556471
9658,1666,0.814029,7.843405,4.951209,-0.035972,-0.039969,0.002398,25.55353
9668,1694,0.849942,7.862558,4.936844,-0.054891,-0.041568,-0.000533,25.556471
9678,1741,0.864307,7.841011,4.989516,-0.073011,-0.036239,-0.002398,25.541765
9688,1775,0.845153,7.81228,5.073313,-0.077541,-0.03011,0.000799,25.547647
9698,1767,0.826,7.838616,5.12838,-0.07008,-0.028245,0.00453,25.55353
9708,1829,0.790087,7.879318,5.145139,-0.062086,-0.032508,0.00826,25.559412
9718,1842,0.792481,7.893683,5.125986,-0.062885,-0.032508,0.015988,25.547647
9728,1894,0.792481,7.90326,5.152322,-0.071145,-0.026913,0.025047,25.547647
9738,1952,0.837971,7.908048,5.17387,-0.078606,-0.021317,0.034374,25.559412
9748,1949,0.88346,7.941567,5.260061,-0.079672,-0.016787,0.03917,25.556471
9758,2001,0.931344,7.982268,5.284003,-0.072211,-0.012257,0.038371,25.547647
9768,2011,0.940921,7.994239,5.310339,-0.060487,-0.006662,0.034907,25.544706
9778,1989,0.948104,7.953538,5.260061,-0.050628,-0.00373,0.030377,25.55353
9788,1978,0.976834,7.876924,5.221754,-0.04743,-0.00906,0.025047,25.568235
9798,1961,1.010353,7.814674,5.178658,-0.055158,-0.021051,0.015988,25.556471
9808,1938,1.04866,7.805098,5.147533,-0.064484,-0.033041,0.005862,25.574118
9818,1865,1.09415,7.800309,5.243302,-0.071145,-0.0429,0,25.568235
9828,1778,1.132457,7.802703,5.295974,-0.071412,-0.049562,-0.005329,25.574118
9838,1726,1.134852,7.821857,5.324705,-0.065816,-0.056224,-0.013323,25.562353
9848,1717,1.177947,7.85777,5.307945,-0.060487,-0.061286,-0.026113,25.547647
9858,1697,1.156399,7.90326,5.291186,-0.059155,-0.063685,-0.040236,25.559412
9868,1685,1.096544,7.891289,5.288792,-0.058089,-0.065017,-0.050894,25.562353
9878,1744,1.063026,7.896077,5.319916,-0.058089,-0.066616,-0.051694,25.55353
9888,1752,0.988805,7.943961,5.324705,-0.054625,-0.065816,-0.043167,25.556471
9898,1773,1.01993,8.032547,5.233725,-0.039436,-0.06475,-0.03544,25.556471
9908,1811,1.063026,8.061277,5.181053,-0.03091,-0.075409,-0.034107,25.55353
9918,1850,1.137246,7.94875,5.181053,-0.03464,-0.096459,-0.032242,25.559412
9928,1841,1.218649,7.845799,5.169082,-0.041568,-0.114579,-0.038371,25.562353
9938,1869,1.240196,7.762002,5.171476,-0.0429,-0.122839,-0.053825,25.574118
9948,1873,1.223437,7.790732,5.157111,-0.043167,-0.127103,-0.073011,25.574118
9958,1907,1.211466,7.905654,5.080496,-0.05196,-0.133231,-0.091663,25.559412
9968,1891,1.151611,8.003817,5.090073,-0.068481,-0.141758,-0.107651,25.559412
9978,1909,1.043872,8.082825,5.200206,-0.080205,-0.140959,-0.12124,25.562353
9988,1904,0.955287,8.111555,5.370194,-0.068747,-0.132965,-0.128435,25.577059
9998,1882,0.852336,8.12592,5.439626,-0.041035,-0.12577,-0.129234,25.597647
10008,1882,0.758962,8.123527,5.44202,-0.013057,-0.120708,-0.123106,25.568235
10018,1899,0.718261,8.109161,5.449203,0.002132,-0.121773,-0.112181,25.565294
10028,1911,0.723049,8.104373,5.485116,-0.002931,-0.140426,-0.100456,25.582941
10038,1877,0.78051,8.183381,5.556942,-0.011991,-0.17027,-0.089798,25.571177
10048,1890,0.833182,8.243237,5.590461,-0.014655,-0.202778,-0.082603,25.574118
10058,1892,0.859518,8.240842,5.635951,-0.006395,-0.216368,-0.089798,25.562353
10068,1867,0.80924,8.226477,5.688623,0.016254,-0.208374,-0.107384,25.568235
10078,1870,0.742203,8.228871,5.647922,0.042101,-0.198515,-0.121773,25.565294
10088,1939,0.667982,8.226477,5.695806,0.058888,-0.212637,-0.126836,25.565294
10098,1919,0.651223,8.221688,5.734113,0.065283,-0.253406,-0.12204,25.577059
10108,1937,0.711078,8.149862,5.736507,0.06555,-0.314426,-0.114845,25.577059
10118,1931,0.766145,8.101978,5.750873,0.064484,-0.377044,-0.101789,25.577059
10128,1936,0.837971,8.140285,5.674258,0.075409,-0.418346,-0.085002,25.571177
10138,1903,0.940921,8.221688,5.588067,0.098325,-0.440729,-0.073544,25.585882
10148,1915,1.043872,8.221688,5.499481,0.113779,-0.470573,-0.073011,25.585882
10158,1931,1.098939,8.204929,5.50427,0.117243,-0.500417,-0.084469,25.571177
10168,1956,1.106121,8.164227,5.657499,0.122839,-0.528662,-0.096726,25.556471
10178,2046,1.01993,8.128315,5.686229,0.156946,-0.520401,-0.120175,25.565294
10188,2160,0.878672,8.070854,5.549759,0.216368,-0.466576,-0.144156,25.582941
10198,2192,0.672771,7.965509,5.250484,0.29151,-0.37438,-0.166273,25.588823
10208,2272,0.505177,7.711724,4.841076,0.341871,-0.294708,-0.180395,25.594706
10218,2258,0.380678,7.441179,4.417302,0.334144,-0.258469,-0.183593,25.585882
10228,2188,0.272939,7.319075,3.86903,0.267795,-0.253672,-0.168671,25.574118
10238,2070,0.282516,7.345411,3.435679,0.16947,-0.257669,-0.134564,25.582941
10248,1983,0.371101,7.369353,3.32794,0.058888,-0.257136,-0.088466,25.577059
10258,1936,0.572214,7.381324,3.485958,-0.064484,-0.257669,-0.042634,25.577059
10268,1947,0.852336,7.551312,3.730166,-0.17853,-0.266729,-0.014655,25.571177
10278,1969,1.122881,7.776367,4.070143,-0.255538,-0.293642,-0.005063,25.574118
10288,2010,1.288081,7.955932,4.350265,-0.286181,-0.329881,-0.020784,25.58
10298,2034,1.338359,8.054094,4.522647,-0.274456,-0.332812,-0.068747,25.582941
10308,2012,1.273715,8.09719,4.611232,-0.232355,-0.286447,-0.126037,25.58
10318,2038,1.132457,8.063671,4.584896,-0.178796,-0.225161,-0.164407,25.565294
10328,1991,1.012747,7.987057,4.472369,-0.138827,-0.18679,-0.179063,25.574118
10338,1686,0.936133,8.02297,4.278439,-0.131632,-0.171069,-0.164141,25.577059
10348,2725,0.94571,8.082825,4.189853,-0.176665,-0.162276,-0.138827,25.577059
10358,4095,1.017536,8.135497,4.240131,-0.25607,-0.154282,-0.115112,25.582941
10368,4095,1.192312,8.116343,4.479551,-0.326949,-0.152949,-0.0874,25.571177
10378,2416,1.39582,8.056489,4.759673,-0.370649,-0.154548,-0.073277,25.559412
10388,1651,1.563414,8.075643,4.982334,-0.38264,-0.155881,-0.076208,25.571177
10398,2160,1.707066,8.185776,5.125986,-0.367452,-0.161743,-0.089798,25.565294
10408,2060,1.742979,8.202535,5.312734,-0.328015,-0.164141,-0.115378,25.571177
10418,2067,1.723825,8.145074,5.480328,-0.281651,-0.162809,-0.14309,25.582941
10428,2086,1.716643,8.188169,5.482722,-0.235286,-0.179596,-0.170802,25.585882
10438,2096,1.692701,8.267179,5.317522,-0.189721,-0.218766,-0.207841,25.585882
10448,2098,1.661576,8.12592,5.183447,-0.164141,-0.258735,-0.249675,25.577059
10458,2165,1.61848,7.876924,5.11162,-0.179329,-0.288845,-0.283516,25.585882
10468,2186,1.520318,7.706935,5.058948,-0.224628,-0.296573,-0.306698,25.591764
10478,2190,1.400608,7.659051,5.070919,-0.277121,-0.29977,-0.319489,25.582941
10488,2176,1.247379,7.668628,5.159505,-0.323752,-0.31336,-0.323219,25.58
10498,2214,1.115698,7.752425,5.216966,-0.354129,-0.320288,-0.324285,25.594706
10508,2217,0.97444,7.891289,5.317522,-0.355994,-0.311761,-0.31336,25.58
10518,2282,0.871489,8.001422,5.307945,-0.320821,-0.283783,-0.296839,25.585882
10528,2286,0.782904,8.082825,5.307945,-0.266462,-0.251807,-0.285381,25.582941
10538,2289,0.730232,8.075643,5.307945,-0.203844,-0.237152,-0.274989,25.585882
10548,2335,0.749385,7.93199,5.312734,-0.139893,-0.249409,-0.256603,25.577059
10558,2363,0.78051,7.764396,5.348647,-0.11298,-0.281917,-0.257669,25.58
10568,2416,0.684742,7.867347,5.396531,-0.123905,-0.300303,-0.284315,25.585882
10578,2411,0.531513,8.099585,5.499481,-0.132432,-0.301369,-0.279519,25.60647
10588,2403,0.462081,8.207323,5.602432,-0.119375,-0.292043,-0.24781,25.577059
10598,2378,0.469264,8.11395,5.667076,-0.079672,-0.271525,-0.209972,25.591764
10608,2411,0.536301,7.896077,5.537788,-0.036772,-0.236086,-0.180395,25.591764
10618,2352,0.653617,7.754819,5.327099,-0.014123,-0.190787,-0.16121,25.58
10628,2305,0.761356,7.714118,5.030218,-0.028245,-0.149219,-0.144156,25.577059
10638,2208,0.909797,7.711724,4.831499,-0.073544,-0.12124,-0.13936,25.58
10648,2118,1.036689,7.615956,4.848258,-0.133764,-0.124971,-0.157746,25.577059
10658,2059,1.060631,7.630321,5.006276,-0.190521,-0.154015,-0.203577,25.577059
10668,2030,0.988805,7.795521,5.209783,-0.221963,-0.180395,-0.251008,25.594706
10678,1975,0.821211,8.020576,5.403713,-0.2177,-0.195051,-0.280851,25.585882
10688,1987,0.624887,8.14268,5.564125,-0.181727,-0.201979,-0.284848,25.565294
10698,1947,0.488417,8.164227,5.638345,-0.135629,-0.203044,-0.271792,25.571177
10708,1962,0.397437,8.104373,5.580884,-0.098858,-0.203577,-0.25234,25.588823
10718,1984,0.416591,8.018182,5.523423,-0.077541,-0.200913,-0.244613,25.594706
10728,1971,0.488417,7.984663,5.453991,-0.066882,-0.197449,-0.247011,25.603529
10738,2000,0.538695,7.991845,5.382165,-0.062885,-0.192919,-0.245145,25.594706
10748,1983,0.581791,7.920019,5.317522,-0.067149,-0.185724,-0.235553,25.600588
10758,2029,0.61531,7.833828,5.32231,-0.078074,-0.161476,-0.220631,25.591764
10768,2016,0.672771,7.769185,5.370194,-0.087666,-0.134564,-0.210772,25.568235
10778,1994,0.634463,7.764396,5.410896,-0.084735,-0.116977,-0.205443,25.577059
10788,1983,0.565032,7.716512,5.410896,-0.070613,-0.111914,-0.196649,25.585882
10798,1991,0.521936,7.630321,5.41329,-0.047697,-0.118043,-0.181461,25.600588
10808,1997,0.462081,7.587225,5.396531,-0.022383,-0.131632,-0.158545,25.588823
10818,1968,0.426168,7.596802,5.360618,-0.003464,-0.142557,-0.129767,25.591764
10828,1984,0.452504,7.565677,5.358223,0.006662,-0.152683,-0.100989,25.582941
10838,1971,0.500388,7.565677,5.391742,0.009593,-0.162009,-0.073544,25.582941
10848,1977,0.560243,7.668628,5.463568,0.011458,-0.16574,-0.047963,25.574118
10858,1963,0.627281,7.752425,5.465962,0.019985,-0.168404,-0.031443,25.591764
10868,1933,0.708684,7.855376,5.415684,0.032775,-0.170003,-0.023715,25.58
10878,1955,0.782904,7.898471,5.351041,0.038371,-0.172135,-0.034107,25.58
10888,1932,0.842759,7.979874,5.312734,0.037305,-0.16947,-0.058089,25.588823
10898,1950,0.873884,8.051701,5.324705,0.037038,-0.162276,-0.089798,25.577059
10908,1959,0.857124,8.111555,5.33907,0.045832,-0.152949,-0.123106,25.588823
10918,1958,0.826,8.137892,5.310339,0.059688,-0.140426,-0.148686,25.588823
10928,1994,0.761356,8.106767,5.288792,0.07008,-0.116178,-0.166273,25.591764
10938,1953,0.684742,8.063671,5.288792,0.081538,-0.093262,-0.171602,25.603529
10948,1923,0.641646,7.999028,5.214571,0.091663,-0.083136,-0.171069,25.591764
10958,1957,0.574608,7.953538,5.032612,0.096459,-0.084735,-0.167605,25.571177
10968,1974,0.543484,7.936779,4.829105,0.091663,-0.088466,-0.167072,25.577059
10978,1973,0.517148,7.934384,4.683059,0.078074,-0.092729,-0.16947,25.571177
10988,1968,0.521936,7.920019,4.697424,0.055691,-0.106052,-0.172401,25.588823
10998,1995,0.52433,7.876924,4.74052,0.028511,-0.130833,-0.171069,25.582941
11008,2047,0.555455,7.924808,4.76925,0.007727,-0.152683,-0.164141,25.571177
11018,2126,0.612916,7.97748,4.790798,-0.010658,-0.173201,-0.164141,25.591764
11028,2139,0.665588,8.061277,4.819528,-0.019452,-0.191054,-0.174533,25.591764
11038,2195,0.632069,8.137892,4.764462,-0.017587,-0.203844,-0.196116,25.582941
11048,2162,0.545878,8.137892,4.776433,-0.011991,-0.212371,-0.220098,25.577059
11058,2032,0.387861,8.128315,4.762067,-0.005596,-0.214236,-0.235286,25.582941
11068,1986,0.222661,8.133103,4.716578,0.000266,-0.216368,-0.236086,25.588823
11078,1934,0.031125,8.166622,4.702212,0.001332,-0.220364,-0.213436,25.58
11088,1889,-0.098162,8.166622,4.704607,-0.003198,-0.225694,-0.180662,25.591764
11098,1926,-0.19393,8.140285,4.730943,-0.003997,-0.224361,-0.139093,25.588823
11108,1936,-0.222661,8.082825,4.836287,0.00453,-0.2169,-0.079672,25.600588
11118,1930,-0.172383,8.034941,4.970363,0.015455,-0.211038,-0.013057,25.597647
11128,1917,0.002394,7.994239,5.042189,0.028511,-0.211305,0.055957,25.591764
11138,1948,0.174777,7.893683,5.164293,0.044233,-0.224361,0.115112,25.588823
11148,1931,0.356736,7.793127,5.147533,0.060221,-0.240882,0.152417,25.582941
11158,1645,0.4956,7.687782,5.102044,0.07008,-0.245945,0.163342,25.588823
11168,2219,0.548272,7.587225,5.013458,0.059421,-0.241415,0.151351,25.603529
11178,4095,0.565032,7.565677,4.958392,0.031975,-0.233155,0.140959,25.582941
11188,4095,0.56982,7.52737,4.900931,-0.000799,-0.217433,0.143623,25.591764
11198,2543,0.591368,7.505822,4.841076,-0.03464,-0.201979,0.155348,25.597647
11208,1203,0.694318,7.510611,4.824317,-0.057023,-0.189721,0.175066,25.594706
11218,1927,0.823605,7.546524,4.848258,-0.081271,-0.192119,0.190254,25.597647
11228,1867,0.969652,7.560889,4.896142,-0.102322,-0.206242,0.201979,25.591764
11238,1876,1.063026,7.477092,5.046977,-0.125237,-0.217433,0.214502,25.585882
11248,1869,1.189918,7.357382,5.197812,-0.15215,-0.232089,0.224361,25.591764
11258,1896,1.352724,7.393295,5.267244,-0.149752,-0.258469,0.223296,25.588823
11268,1875,1.563414,7.539341,5.209783,-0.128968,-0.28325,0.193718,25.58
11278,1890,1.649605,7.587225,5.193024,-0.123372,-0.295507,0.137761,25.582941
11288,1872,1.604115,7.580042,5.252879,-0.127369,-0.293375,0.07834,25.603529
11298,1907,1.532289,7.599196,5.286397,-0.127103,-0.290444,0.043167,25.600588
11308,1967,1.479617,7.642292,5.209783,-0.123372,-0.284049,0.025047,25.609411
11318,1971,1.491588,7.76679,5.130774,-0.11298,-0.292043,0.024515,25.600588
11328,1969,1.580173,7.785944,5.061342,-0.10392,-0.310429,0.033041,25.615294
11338,1998,1.740585,7.728483,5.102044,-0.102055,-0.345069,0.038104,25.60647
11348,2014,1.84593,7.615956,5.149928,-0.111115,-0.387969,0.026113,25.600588
11358,2016,1.932121,7.524976,5.133168,-0.133764,-0.424741,-0.002665,25.603529
11368,2076,1.929727,7.467515,5.176264,-0.159345,-0.453253,-0.038637,25.597647
11378,2059,1.917756,7.529764,5.236119,-0.175599,-0.487626,-0.06928,25.603529
11388,2089,1.877054,7.718906,5.252879,-0.175865,-0.542518,-0.098858,25.597647
11398,2072,1.805228,7.94875,5.159505,-0.155614,-0.590747,-0.135363,25.585882
11408,2073,1.740585,8.137892,5.154716,-0.12204,-0.614196,-0.16494,25.600588
11418,2090,1.735796,8.111555,5.21936,-0.082603,-0.624855,-0.169737,25.600588
11428,2077,1.819593,7.898471,5.274426,-0.050894,-0.63578,-0.147354,25.609411
11438,2047,1.991976,7.728483,5.224148,-0.046364,-0.652833,-0.11298,25.603529
11448,2001,2.166753,7.699753,5.08289,-0.074876,-0.673884,-0.088466,25.60647
11458,1902,2.303222,7.742848,4.99191,-0.135629,-0.702395,-0.096726,25.60647
11468,1822,2.348712,7.802703,5.032612,-0.197715,-0.736236,-0.140426,25.597647
11478,1744,2.291251,7.94875,5.181053,-0.236086,-0.774074,-0.206775,25.591764
11488,1712,2.147599,8.224083,5.238513,-0.239283,-0.812711,-0.284848,25.603529
11498,1667,1.94888,8.446744,5.262455,-0.20944,-0.827366,-0.353329,25.594706
11508,1680,1.75495,8.494628,5.377377,-0.156147,-0.804717,-0.385038,25.600588
11518,1681,1.63524,8.561666,5.372589,-0.095394,-0.760217,-0.367185,25.600588
11528,1686,1.599327,8.63828,5.288792,-0.046098,-0.736769,-0.32242,25.591764
11538,1687,1.723825,8.674192,5.125986,-0.015188,-0.751424,-0.276588,25.594706
11548,1693,1.939303,8.616732,5.013458,-0.006662,-0.793259,-0.249142,25.594706
11558,1707,2.181118,8.420407,4.955997,-0.016254,-0.835893,-0.263798,25.603529
11568,1728,2.27928,8.212111,4.786009,-0.026646,-0.853213,-0.330413,25.612352
11578,1751,2.207454,8.090008,4.666299,-0.0429,-0.826833,-0.396496,25.600588
11588,1738,2.106898,8.082825,4.730943,-0.073544,-0.78713,-0.456184,25.609411
11598,1766,2.037466,8.322245,4.836287,-0.088998,-0.768211,-0.475369,25.600588
11608,1739,2.049437,8.628703,4.953603,-0.062352,-0.807648,-0.447923,25.603529
11618,1776,2.054225,8.827422,4.967968,-0.025047,-0.880126,-0.444992,25.600588
11628,1738,2.020706,8.841787,4.96318,0.016521,-0.906505,-0.505746,25.612352
11638,1737,1.872266,8.889671,4.900931,0.07834,-0.855078,-0.566766,25.60647
11648,1715,1.640028,8.846576,4.819528,0.158812,-0.772208,-0.587816,25.612352
11658,1709,1.47004,8.614338,4.76925,0.222763,-0.708524,-0.571296,25.600588
11668,1702,1.383849,8.293514,4.735731,0.249409,-0.672285,-0.520934,25.60647
11678,1686,1.33357,8.06846,4.532224,0.240083,-0.662159,-0.46098,25.618235
11688,1680,1.335965,7.991845,4.237737,0.213703,-0.654965,-0.402092,25.615294
11698,1695,1.388637,7.994239,4.050989,0.180395,-0.639776,-0.366119,25.612352
11708,1680,1.446098,8.092402,4.048595,0.14762,-0.620325,-0.370116,25.612352
11718,1651,1.482011,8.281544,4.158728,0.142291,-0.605136,-0.385305,25.615294
11728,1671,1.431733,8.3821,4.280833,0.168404,-0.590747,-0.391167,25.612352
11738,1654,1.362301,8.35337,4.268862,0.203311,-0.567032,-0.3909,25.597647
11748,1651,1.278504,8.267179,4.252102,0.233155,-0.531859,-0.382107,25.612352
11758,1666,1.206678,8.159439,4.06296,0.245412,-0.499351,-0.367985,25.612352
11768,1664,1.182736,8.157045,3.845088,0.234221,-0.477234,-0.352263,25.588823
11778,1648,1.206678,8.228871,3.806781,0.20864,-0.456983,-0.330147,25.594706
11788,1642,1.302446,8.439561,3.96001,0.18679,-0.438597,-0.309096,25.597647
11798,1680,1.450886,8.882488,4.266468,0.171069,-0.411152,-0.292842,25.600588
11808,1742,1.613692,9.562442,4.577713,0.164674,-0.373047,-0.282184,25.60647
11818,1834,1.788469,10.149021,4.936844,0.170802,-0.334677,-0.280319,25.600588
11828,1866,1.94888,10.357317,5.197812,0.202511,-0.310429,-0.282717,25.600588
11838,1887,1.99437,10.031705,5.159505,0.26966,-0.311495,-0.274989,25.594706
11848,1907,1.936909,9.315839,4.680665,0.330147,-0.318156,-0.260867,25.612352
11858,1811,1.824382,8.60955,4.031836,0.312028,-0.307498,-0.252073,25.621176
11868,1774,1.721431,8.12592,3.634398,0.20491,-0.294974,-0.254738,25.621176
11878,1694,1.659182,7.874529,3.457227,0.050361,-0.297639,-0.268328,25.615294
11888,1648,1.537078,7.781156,3.512294,-0.086334,-0.3043,-0.28698,25.603529
11898,1637,1.45328,7.85777,3.651158,-0.168671,-0.296573,-0.297372,25.603529
11908,1643,1.39582,8.013393,3.780444,-0.201712,-0.278986,-0.286181,25.609411
11918,1679,1.338359,8.264784,3.866636,-0.212904,-0.266196,-0.257403,25.594706
11928,1643,1.362301,8.468291,3.964798,-0.218233,-0.274456,-0.211838,25.609411
11938,1669,1.422156,8.552089,4.082114,-0.213436,-0.293642,-0.165473,25.612352
11948,1704,1.450886,8.475474,4.280833,-0.196916,-0.298172,-0.143623,25.621176
11958,1434,1.426944,8.42759,4.383783,-0.172934,-0.272858,-0.152683,25.612352
11968,1575,1.352724,8.444349,4.429273,-0.146554,-0.226493,-0.174,25.618235
11978,4095,1.300052,8.549694,4.426879,-0.120974,-0.176931,-0.188922,25.60647
11988,4095,1.285686,8.607155,4.465186,-0.105519,-0.152683,-0.187856,25.600588
11998,2981,1.295263,8.595184,4.532224,-0.09566,-0.16121,-0.171602,25.597647
12008,910,1.417367,8.532935,4.551377,-0.091663,-0.201179,-0.144423,25.618235
12018,1680,1.582567,8.446744,4.462792,-0.084202,-0.250208,-0.11751,25.60647
12028,1727,1.757344,8.231265,4.266468,-0.08287,-0.288312,-0.088998,25.603529
12038,1675,1.838747,7.70933,4.043807,-0.105253,-0.313893,-0.067948,25.615294
12048,1724,1.872266,7.058106,3.86903,-0.162276,-0.329614,-0.054891,25.600588
12058,1748,1.877054,6.519411,3.65834,-0.24328,-0.353329,-0.038104,25.624117
12068,1730,1.886631,6.110003,3.481169,-0.344003,-0.406888,-0.034107,25.603529
12078,1789,1.90339,5.798757,3.421314,-0.46098,-0.480698,-0.034107,25.612352
12088,1821,1.912967,5.559336,3.488352,-0.574227,-0.5649,-0.027179,25.621176
12098,1842,1.944092,5.420473,3.567361,-0.67415,-0.641908,-0.014123,25.618235
12108,1869,2.049437,5.444415,3.679888,-0.756487,-0.702129,0.010925,25.612352
12118,1929,2.20506,5.506664,3.878607,-0.821504,-0.742631,0.037305,25.603529
12128,1970,2.470816,5.793968,4.189853,-0.872398,-0.763415,0.065017,25.618235
12138,1950,2.899378,6.220136,4.738125,-0.914766,-0.76981,0.097525,25.621176
12148,1987,3.399766,6.744466,5.262455,-0.925424,-0.778603,0.113779,25.618235
12158,2032,3.890578,7.323863,5.810728,-0.901709,-0.770609,0.090597,25.627058
12168,2075,4.326323,7.862558,6.244078,-0.843354,-0.764747,0.017853,25.618235
12178,2109,4.647145,8.307879,6.584054,-0.75702,-0.761017,-0.086067,25.618235
12188,2153,4.800375,8.559271,6.859388,-0.66509,-0.752757,-0.202511,25.621176
12198,2128,4.764462,8.671799,6.962338,-0.582221,-0.737035,-0.325084,25.624117
12208,2167,4.522647,8.719683,6.830657,-0.528662,-0.722913,-0.447657,25.618235
12218,2160,4.070143,8.710106,6.596025,-0.51747,-0.715185,-0.551844,25.603529
12228,2007,3.541024,8.643068,6.469133,-0.53932,-0.715718,-0.63045,25.629999
12238,1968,3.028665,8.499416,6.53617,-0.567032,-0.727443,-0.68321,25.60647
12248,1948,2.621651,8.322245,6.591237,-0.566499,-0.745829,-0.702129,25.60647
12258,1986,2.396596,8.2169,6.442797,-0.53559,-0.758352,-0.687207,25.618235
12268,2000,2.339135,8.180987,6.10282,-0.501216,-0.758885,-0.653899,25.618235
12278,1755,2.470816,8.152257,5.774815,-0.48283,-0.752757,-0.620325,25.629999
12288,1702,2.736573,8.034941,5.595249,-0.472704,-0.747427,-0.602472,25.63294
12298,1698,3.050213,7.824251,5.499481,-0.459648,-0.745829,-0.602738,25.627058
12308,1693,3.325546,7.539341,5.475539,-0.440995,-0.743963,-0.62592,25.621176
12318,1671,3.495534,7.275979,5.439626,-0.421011,-0.734371,-0.668288,25.609411
12328,1686,3.543418,7.091625,5.300763,-0.399161,-0.71785,-0.723712,25.618235
12338,1708,3.495534,7.005434,5.149928,-0.370649,-0.70053,-0.778337,25.621176
12348,1731,3.332729,6.931214,5.035006,-0.351997,-0.689605,-0.82177,25.624117
12358,1783,3.124433,6.871359,5.061342,-0.350931,-0.676015,-0.84362,25.624117
12368,1807,2.904167,6.86657,5.140351,-0.355994,-0.663225,-0.843087,25.624117
12378,1831,2.650381,6.907272,5.272032,-0.348533,-0.653899,-0.824701,25.624117
12388,1781,2.466028,6.955156,5.305551,-0.317623,-0.645905,-0.800187,25.612352
12398,1819,2.296039,6.988675,5.260061,-0.273124,-0.642974,-0.770077,25.612352
12408,1799,2.190695,6.993463,5.099649,-0.232622,-0.650968,-0.73064,25.624117
12418,1776,2.202666,6.991069,4.91769,-0.215568,-0.662959,-0.679746,25.60647
12428,1805,2.238579,6.943185,4.795586,-0.222496,-0.66509,-0.617127,25.615294
12438,1871,2.336741,6.895301,4.721366,-0.237152,-0.644573,-0.574227,25.63294
12448,1908,2.391808,6.88333,4.776433,-0.244346,-0.606735,-0.559571,25.629999
12458,1884,2.413355,6.933608,4.802769,-0.237685,-0.568364,-0.562769,25.621176
12468,1863,2.322376,6.98628,4.726154,-0.226227,-0.53026,-0.57476,25.609411
12478,1856,2.140416,7.000646,4.649539,-0.2177,-0.477767,-0.584885,25.615294
12488,1781,1.941698,7.07726,4.613626,-0.217433,-0.414349,-0.584352,25.615294
12498,1831,1.728614,7.132327,4.623203,-0.224361,-0.355727,-0.569164,25.609411
12508,1841,1.584962,7.230489,4.69503,-0.226493,-0.312827,-0.532392,25.609411
12518,1840,1.541866,7.386112,4.81474,-0.216368,-0.29604,-0.47004,25.627058
12528,1878,1.532289,7.49864,4.860229,-0.193985,-0.279786,-0.405023,25.627058
12538,1969,1.537078,7.580042,4.936844,-0.163608,-0.239017,-0.360257,25.621176
12548,1908,1.640028,7.651869,4.996699,-0.12657,-0.195583,-0.324551,25.609411
12558,1840,1.750161,7.639898,4.975151,-0.095926,-0.165207,-0.296306,25.603529
12568,1876,1.833959,7.534553,4.929661,-0.077008,-0.134031,-0.28245,25.618235
12578,1842,1.898602,7.467515,4.936844,-0.07008,-0.101789,-0.283783,25.624117
12588,1898,1.924938,7.429208,4.970363,-0.070346,-0.075675,-0.294175,25.60647
12598,1899,1.944092,7.472303,5.023035,-0.069547,-0.052227,-0.298971,25.615294
12608,1959,1.900996,7.592013,5.039794,-0.06555,-0.027446,-0.286714,25.63294
12618,1957,1.889025,7.728483,5.032612,-0.060221,0.006129,-0.269394,25.624117
12628,1945,1.824382,7.869741,5.0374,-0.045032,0.043966,-0.252606,25.629999
12638,1919,1.80044,8.034941,5.044583,-0.018119,0.07381,-0.228625,25.615294
12648,2035,1.759738,8.164227,5.030218,0.017587,0.097525,-0.20038,25.627058
12658,2062,1.704672,8.291121,5.0374,0.05276,0.120441,-0.178263,25.63294
12668,2195,1.687912,8.420407,5.085284,0.092995,0.142291,-0.162276,25.629999
12678,2038,1.66397,8.542512,5.197812,0.137761,0.158545,-0.151084,25.624117
12688,1983,1.608904,8.678981,5.267244,0.183859,0.167072,-0.136962,25.63294
12698,1984,1.54426,8.844181,5.379771,0.224628,0.174533,-0.116178,25.627058
12708,1939,1.513135,9.119514,5.590461,0.243813,0.181461,-0.087666,25.629999
12718,1941,1.505953,9.437943,5.832275,0.248609,0.181461,-0.059421,25.63294
12728,1927,1.448492,9.665392,6.054936,0.253672,0.181994,-0.037305,25.635881
12738,1931,1.335965,9.746795,6.045359,0.274989,0.204377,-0.030377,25.629999
12748,1857,1.154005,9.605537,6.002264,0.294708,0.251274,-0.031443,25.641766
12758,1909,0.984017,9.397242,6.155493,0.293375,0.303234,-0.02558,25.635881
12768,2011,0.907402,9.378088,6.476315,0.257669,0.335476,-0.011458,25.627058
12778,2047,0.852336,9.5385,6.811504,0.195317,0.322953,0.011991,25.624117
12788,1804,0.773327,9.753978,6.873753,0.135096,0.280319,0.042634,25.621176
12798,2020,0.672771,9.849746,6.780379,0.100723,0.261933,0.078873,25.618235
12808,4095,0.59855,9.701305,6.725313,0.085534,0.293109,0.119642,25.627058
12818,4095,0.555455,9.423578,6.584054,0.073544,0.338674,0.16574,25.641766
12828,3476,0.560243,9.035717,6.34224,0.054625,0.372781,0.210239,25.638824
12838,1231,0.560243,8.623915,6.07409,0.015988,0.38717,0.241149,25.624117
12848,2013,0.514753,8.238448,5.825093,-0.035706,0.397828,0.25234,25.629999
12858,2154,0.395043,7.874529,5.643134,-0.071412,0.41808,0.247277,25.627058
12868,2032,0.205901,7.280767,5.499481,-0.081271,0.474836,0.255271,25.618235
12878,1940,0.033519,6.430826,5.329493,-0.085002,0.568098,0.271792,25.629999
12888,2059,-0.076614,5.540183,5.08289,-0.050361,0.672285,0.293109,25.627058
12898,2060,-0.1652,4.965574,4.900931,0.001066,0.774873,0.301103,25.621176
12908,2125,-0.268151,4.575319,4.819528,-0.027712,0.847617,0.282184,25.621176
12918,2262,-0.486023,4.316746,5.125986,-0.117243,0.901443,0.231822,25.63294
12928,2282,-0.785298,4.323928,5.695806,-0.223828,0.945409,0.163342,25.644707
12938,2307,-1.137246,4.687847,6.38773,-0.329614,0.986711,0.10925,25.638824
12948,2352,-1.484405,5.434838,6.931214,-0.421544,0.999234,0.094061,25.644707
12958,2084,-1.853112,6.517017,7.283162,-0.431936,0.971522,0.173201,25.635881
12968,2218,-2.08535,7.747637,7.460332,-0.342404,0.875329,0.357593,25.621176
12978,2266,-2.06859,8.53054,7.419631,-0.18306,0.753556,0.602472,25.629999
12988,2238,-1.711854,8.607155,7.501034,-0.022116,0.660294,0.813776,25.63294
12998,2303,-1.041478,8.293514,7.501034,0.06928,0.606735,0.952337,25.63294
13008,2289,-0.241814,7.943961,7.182605,0.065816,0.55291,1.037871,25.624117
13018,2242,0.61531,7.757214,6.588843,-0.025314,0.506812,1.083703,25.629999
13028,2251,1.417367,7.632715,6.066907,-0.150285,0.504946,1.0877,25.63294
13038,2373,2.015918,7.489063,6.023811,-0.236352,0.544116,1.021351,25.638824
13048,2350,2.394202,7.275979,6.275203,-0.231822,0.585418,0.858276,25.635881
13058,2220,2.44448,7.125144,6.471527,-0.142025,0.601406,0.630983,25.629999
13068,2111,2.080561,7.120356,6.306327,-0.036505,0.584086,0.418613,25.621176
13078,2085,1.47004,7.206547,5.841852,0.023715,0.564634,0.271792,25.635881
13088,2070,0.703895,7.383718,5.444415,0.026646,0.555308,0.198781,25.635881
13098,2011,-0.007183,7.570466,5.29358,0.007727,0.537455,0.195583,25.638824
13108,1955,-0.603339,7.718906,5.32231,0.00906,0.499617,0.254472,25.644707
13118,1914,-0.995988,7.764396,5.386954,0.046098,0.448989,0.348,25.629999
13128,1871,-1.180341,7.656657,5.353435,0.103121,0.411152,0.446058,25.629999
13138,1883,-1.058237,7.357382,5.216966,0.151884,0.411418,0.520401,25.624117
13148,1898,-0.725443,7.041347,5.085284,0.163075,0.450588,0.567032,25.63294
13158,1895,-0.31364,6.825869,5.006276,0.136429,0.490557,0.585685,25.647648
13168,1852,0.122104,6.73489,4.987122,0.086867,0.511342,0.56943,25.635881
13178,1818,0.454898,6.720524,4.982334,0.03917,0.525464,0.522,25.629999
13188,1794,0.653617,6.777985,5.025429,0.016254,0.541452,0.457516,25.635881
13198,1904,0.701501,6.868965,5.080496,0.02558,0.555308,0.384239,25.641766
13208,1920,0.567426,7.00304,5.068525,0.051161,0.543051,0.327482,25.629999
13218,1910,0.390255,7.129933,4.939238,0.067681,0.505213,0.309363,25.612352
13228,1922,0.191536,7.249643,4.774038,0.061819,0.453786,0.332012,25.63294
13238,1919,0.143652,7.347805,4.733337,0.038904,0.3917,0.39623,25.621176
13248,1712,0.308852,7.383718,4.762067,0.021583,0.320288,0.472171,25.627058
13258,1772,0.605733,7.364564,4.795586,0.015188,0.248876,0.526796,25.641766
13268,1776,0.92895,7.347805,4.807557,0.015188,0.189988,0.532126,25.65353
13278,1803,1.199495,7.36217,4.742914,0.017853,0.158012,0.492689,25.629999
13288,1827,1.312023,7.474698,4.651934,0.022383,0.157479,0.419145,25.644707
13298,1818,1.335965,7.639898,4.55856,0.029311,0.180129,0.325884,25.641766
13308,1866,1.18513,7.790732,4.565742,0.042634,0.20038,0.240349,25.635881
13318,1973,0.902614,7.860164,4.563348,0.071945,0.199314,0.179329,25.638824
13328,1845,0.610521,7.76679,4.599261,0.111914,0.185191,0.150285,25.621176
13338,1809,0.378284,7.637504,4.556166,0.13936,0.16041,0.152417,25.624117
13348,1834,0.246603,7.508216,4.520253,0.141758,0.116977,0.175599,25.65353
13358,1738,0.229843,7.49864,4.503493,0.126303,0.055158,0.205176,25.63294
13368,1744,0.3304,7.671022,4.58729,0.111115,-0.016787,0.237685,25.650589
13378,1806,0.514753,8.046912,4.702212,0.114312,-0.0866,0.25607,25.641766
13388,1837,0.732626,8.508993,4.707001,0.149219,-0.145489,0.254738,25.638824
13398,1840,0.902614,8.820239,4.663905,0.209706,-0.185724,0.246211,25.644707
13408,1918,0.988805,8.839393,4.582502,0.27792,-0.194251,0.24328,25.647648
13418,1904,1.036689,8.595184,4.522647,0.320821,-0.175332,0.24328,25.63294
13428,1943,1.070208,8.439561,4.441244,0.316557,-0.146288,0.245678,25.644707
13438,2026,1.084573,8.415619,4.383783,0.266462,-0.123905,0.25607,25.638824
13448,2006,1.115698,8.542512,4.503493,0.200113,-0.107651,0.26966,25.638824
13458,2035,1.130063,8.829816,4.860229,0.148953,-0.093528,0.272591,25.647648
13468,1965,1.134852,9.248801,5.284003,0.129501,-0.089265,0.264064,25.647648
13478,1890,1.154005,9.749189,5.645528,0.135896,-0.097792,0.253406,25.647648
13488,1840,1.134852,10.163386,5.930438,0.138827,-0.103121,0.254472,25.644707
13498,1806,1.144428,10.457873,6.05733,0.113779,-0.093795,0.269394,25.638824
13508,1843,1.211466,10.486604,6.090849,0.059155,-0.07834,0.292309,25.650589
13518,1840,1.288081,10.079589,6.203377,-0.00373,-0.066882,0.318956,25.647648
13528,1869,1.393425,9.526528,6.385336,-0.067149,-0.050894,0.337342,25.641766
13538,1915,1.568202,9.150639,6.517017,-0.13936,-0.025047,0.341605,25.635881
13548,1922,1.742979,8.978256,6.579266,-0.2169,-0.002132,0.31336,25.638824
13558,1931,1.884237,8.844181,6.612785,-0.285381,0.002398,0.258735,25.656471
13568,1835,1.977611,8.566454,6.677429,-0.329614,-0.005329,0.195317,25.629999
13578,1600,1.970428,8.293514,6.698977,-0.357326,-0.007461,0.127369,25.63294
13588,3094,1.929727,8.087613,6.567295,-0.371182,-0.001599,0.049029,25.629999
13598,4095,1.879448,7.891289,6.229713,-0.377844,-0.008793,-0.021583,25.63294
13608,4095,1.802834,7.515399,5.89213,-0.37438,-0.034374,-0.071145,25.641766
13618,1696,1.788469,6.945579,5.66947,-0.363988,-0.065017,-0.103654,25.656471
13628,1658,1.798046,6.337452,5.461174,-0.349332,-0.100456,-0.115645,25.638824
13638,2087,1.896208,5.784391,5.427655,-0.326949,-0.148953,-0.097259,25.659412
13648,2047,2.082955,5.303157,5.638345,-0.304567,-0.22676,-0.043167,25.644707
13658,2075,2.310405,4.88896,5.956774,-0.293642,-0.339473,0.048763,25.644707
13668,2098,2.559402,4.580108,6.416461,-0.316025,-0.478567,0.153749,25.650589
13678,2150,2.825158,4.446033,6.995857,-0.333611,-0.616861,0.219299,25.644707
13688,2183,3.205836,4.752491,7.220912,-0.340273,-0.697599,0.223029,25.656471
13698,2207,3.634398,5.513846,7.03177,-0.383972,-0.641642,0.181994,25.629999
13708,2225,3.993528,6.394913,6.624756,-0.385038,-0.476168,0.051161,25.647648
13718,2269,4.165911,7.278373,6.435614,-0.29151,-0.311495,-0.166539,25.647648
13728,2319,4.007894,7.723695,6.758832,-0.161743,-0.219032,-0.370916,25.662354
13738,2343,3.524265,7.642292,7.304709,-0.051161,-0.192119,-0.503881,25.635881
13748,2496,2.873042,7.33344,7.398083,0.022116,-0.188389,-0.570763,25.635881
13758,2287,2.176329,7.125144,6.998251,0.048763,-0.148153,-0.587816,25.635881
13768,2291,1.623269,7.146692,6.473921,0.025047,-0.08287,-0.556907,25.638824
13778,2405,1.242591,7.24246,6.22253,-0.057822,-0.05276,-0.495887,25.641766
13788,2415,1.00317,7.36217,6.208165,-0.160144,-0.079406,-0.425274,25.638824
13798,2449,0.888249,7.429208,6.16507,-0.211305,-0.12577,-0.351198,25.641766
13808,2371,0.914585,7.417237,6.004658,-0.196383,-0.137495,-0.3043,25.627058
13818,2351,1.036689,7.357382,5.781997,-0.152683,-0.107651,-0.284315,25.644707
13828,2369,1.256956,7.235278,5.540183,-0.116711,-0.077274,-0.278986,25.65353
13838,2384,1.508347,7.007828,5.317522,-0.093795,-0.05649,-0.284848,25.644707
13848,2386,1.704672,6.785168,5.085284,-0.078606,-0.039969,-0.304034,25.638824
13858,2256,1.814805,6.59842,4.989516,-0.062619,-0.021051,-0.328015,25.647648
13868,2128,1.886631,6.406884,4.853047,-0.041035,0.000266,-0.357593,25.644707
13878,2047,1.941698,6.289568,4.802769,-0.013856,0.014922,-0.383972,25.638824
13888,2011,1.929727,6.282385,4.714183,0.013323,0.016787,-0.405822,25.629999
13898,1887,1.889025,6.351817,4.659117,0.031176,0.011991,-0.42634,25.638824
13908,1789,1.817199,6.47871,4.618415,0.042634,0.005862,-0.441795,25.65353
13918,1786,1.726219,6.591237,4.661511,0.054092,-0.002665,-0.446058,25.635881
13928,1807,1.620875,6.703765,4.685453,0.062086,-0.020784,-0.433534,25.659412
13938,1873,1.522712,6.782773,4.654328,0.066616,-0.051161,-0.397296,25.647648
13948,1776,1.462857,6.777985,4.589684,0.066616,-0.09113,-0.340539,25.644707
13958,1687,1.489193,6.756437,4.52983,0.059421,-0.133231,-0.281651,25.650589
13968,1793,1.551443,6.67264,4.522647,0.038104,-0.156147,-0.233954,25.650589
13978,1809,1.644817,6.624756,4.568137,0.015188,-0.158812,-0.203844,25.656471
13988,1850,1.728614,6.591237,4.72376,0.006928,-0.14389,-0.195051,25.665295
13998,1781,1.716643,6.560112,4.881777,0.019452,-0.121507,-0.193985,25.662354
14008,1836,1.625663,6.617573,4.953603,0.042101,-0.093528,-0.189455,25.662354
14018,1787,1.510741,6.806715,4.939238,0.058089,-0.06555,-0.178796,25.644707
14028,1770,1.426944,7.084443,4.896142,0.067149,-0.043966,-0.152949,25.662354
14038,1824,1.405396,7.359776,4.960786,0.079406,-0.027712,-0.10925,25.665295
14048,1777,1.474828,7.541735,5.05416,0.10845,-0.005329,-0.065816,25.656471
14058,1744,1.575385,7.69257,5.183447,0.157746,0.023182,-0.046897,25.665295
14068,1807,1.728614,7.85777,5.26485,0.212637,0.057822,-0.048496,25.659412
14078,1840,1.795651,8.09719,5.276821,0.257403,0.098325,-0.06475,25.650589
14088,1790,1.838747,8.425196,5.188235,0.287247,0.147087,-0.093262,25.656471
14098,1767,1.790863,8.762778,4.96318,0.305899,0.196116,-0.125504,25.641766
14108,1805,1.673547,8.975863,4.824317,0.319755,0.243813,-0.163608,25.65353
14118,1779,1.520318,8.987833,4.764462,0.331746,0.284315,-0.193718,25.644707
14128,1792,1.388637,8.832211,4.754885,0.344536,0.309896,-0.195583,25.656471
14138,1838,1.312023,8.655039,4.730943,0.354928,0.310962,-0.176931,25.644707
14148,1779,1.314417,8.556877,4.608838,0.344536,0.284582,-0.145755,25.65353
14158,1779,1.347936,8.492233,4.481946,0.317623,0.251541,-0.126836,25.644707
14168,1776,1.364695,8.492233,4.575319,0.290178,0.240349,-0.142025,25.647648
14178,1846,1.388637,8.690952,5.099649,0.274989,0.244613,-0.175865,25.65353
14188,1949,1.367089,9.330204,5.93762,0.279519,0.243813,-0.203044,25.65353
14198,1982,1.271321,10.218452,6.576872,0.287779,0.22596,-0.212371,25.656471
14208,2015,1.122881,10.996569,6.744466,0.301369,0.220098,-0.19585,25.656471
14218,2160,0.936133,11.252748,6.648698,0.338674,0.264331,-0.151084,25.671177
14228,2171,0.861913,10.82658,6.603208,0.385838,0.343737,-0.091397,25.644707
14238,2122,0.835576,10.127473,6.646304,0.410086,0.409553,-0.037305,25.656471
14248,1983,0.837971,9.49301,6.619968,0.389568,0.423409,0.003997,25.656471
14258,1970,0.866701,8.971074,6.495469,0.32615,0.384239,0.020518,25.662354
14268,2032,0.80924,8.616732,6.263232,0.231556,0.324818,0.007461,25.63294
14278,2167,0.691924,8.329428,6.035782,0.138827,0.277121,-0.026646,25.641766
14288,2004,0.497994,7.989451,5.889736,0.081271,0.256337,-0.066616,25.659412
14298,1904,0.28491,7.613562,5.731719,0.06475,0.271792,-0.109516,25.662354
14308,1939,0.031125,7.194576,5.525817,0.080738,0.308564,-0.150285,25.662354
14318,2005,-0.213084,6.744466,5.355829,0.096726,0.348,-0.189721,25.662354
14328,2022,-0.457293,6.347029,5.355829,0.093795,0.385571,-0.210239,25.650589
14338,1844,-0.675165,6.016629,5.600038,0.05649,0.412217,-0.20038,25.65353
14348,1867,-0.902614,5.894525,6.066907,0.003198,0.424208,-0.16574,25.674118
14358,4095,-1.115698,6.069301,6.636727,-0.038904,0.409819,-0.106319,25.674118
14368,4095,-1.285686,6.720524,6.967127,-0.053292,0.348,-0.00906,25.656471
14378,4095,-1.39582,7.733272,6.890512,-0.040502,0.253939,0.142557,25.656471
14388,1367,-1.297657,8.688558,6.706159,0.009859,0.189455,0.311495,25.682941
14398,1995,-0.926556,9.109938,6.622362,0.085268,0.168404,0.448723,25.671177
14408,2096,-0.363919,8.875306,6.64391,0.173734,0.142557,0.543583,25.674118
14418,1979,0.234632,8.286332,6.593631,0.208374,0.106052,0.618193,25.656471
14428,1971,0.840365,7.848193,6.296751,0.150818,0.108983,0.676015,25.674118
14438,2058,1.460463,7.855376,5.758055,0.042634,0.152417,0.696533,25.677059
14448,2021,2.03986,8.042124,5.391742,-0.044499,0.185458,0.655498,25.668236
14458,2011,2.434903,7.987057,5.262455,-0.075942,0.166006,0.54385,25.674118
14468,2038,2.547431,7.613562,5.204995,-0.068481,0.117243,0.388236,25.674118
14478,2073,2.406173,7.220912,4.96318,-0.058622,0.080738,0.238484,25.671177
14488,2113,2.092532,7.038953,4.565742,-0.076741,0.07008,0.124971,25.65353
14498,2107,1.699883,7.026982,4.242526,-0.124172,0.058622,0.056224,25.674118
14508,2174,1.328782,7.153875,4.115633,-0.172135,0.024515,0.025847,25.682941
14518,2102,0.993594,7.237672,4.211401,-0.191587,-0.033841,0.027979,25.677059
14528,2095,0.713472,7.153875,4.388572,-0.167072,-0.095127,0.050894,25.65353
14538,2071,0.553061,7.007828,4.465186,-0.105253,-0.138827,0.086067,25.668236
14548,2019,0.54109,6.864176,4.412514,-0.039969,-0.170003,0.123106,25.662354
14558,2002,0.648829,6.787562,4.189853,0.002931,-0.191853,0.147087,25.677059
14568,2085,0.823605,6.780379,4.012682,0.01279,-0.204643,0.13856,25.677059
14578,2062,0.991199,6.828263,3.995923,0.003464,-0.213969,0.096193,25.665295
14588,2023,1.11091,6.919243,4.074931,-0.00373,-0.220897,0.032775,25.65353
14598,2112,1.149217,7.053318,4.192247,0.005596,-0.217966,-0.030643,25.662354
14608,1977,1.118092,7.201759,4.213795,0.025847,-0.203844,-0.081271,25.644707
14618,1916,1.015141,7.309498,4.223372,0.046364,-0.181727,-0.112447,25.665295
14628,1938,0.924162,7.309498,4.161122,0.06102,-0.164674,-0.13936,25.65353
14638,1803,0.881066,7.25922,4.065354,0.066349,-0.168138,-0.164141,25.635881
14648,1623,0.895431,7.194576,3.981557,0.055957,-0.20411,-0.179063,25.650589
14658,1613,0.919373,7.101202,3.96001,0.028245,-0.266196,-0.18679,25.659412
14668,1696,1.034295,7.096414,4.031836,-0.007194,-0.330413,-0.188655,25.68
14678,1465,1.137246,7.232883,4.161122,-0.037571,-0.379176,-0.200913,25.677059
14688,1409,1.244985,7.395689,4.261679,-0.052493,-0.411152,-0.225427,25.671177
14698,1443,1.271321,7.412448,4.350265,-0.041568,-0.427139,-0.251541,25.668236
14708,1568,1.247379,7.299921,4.39336,-0.026113,-0.426873,-0.269394,25.671177
14718,1429,1.189918,7.321469,4.390966,-0.030643,-0.42261,-0.292842,25.662354
14728,1445,1.156399,7.532158,4.345476,-0.053292,-0.432202,-0.332012,25.656471
14738,1493,1.070208,7.82904,4.333505,-0.067948,-0.465776,-0.38264,25.668236
14748,1535,0.972046,8.188169,4.51307,-0.055691,-0.514539,-0.426873,25.668236
14758,1615,0.826,8.607155,4.853047,-0.022649,-0.560104,-0.445259,25.647648
14768,1643,0.627281,9.02614,4.996699,0.031709,-0.577424,-0.443394,25.656471
14778,1521,0.488417,9.375694,4.879383,0.110049,-0.566766,-0.419145,25.671177
14788,1497,0.457293,9.414001,4.620809,0.178796,-0.557706,-0.370916,25.662354
14798,1535,0.584185,9.124303,4.441244,0.197982,-0.572894,-0.306432,25.65353
14808,1636,0.775721,8.779537,4.460398,0.166539,-0.599274,-0.251008,25.662354
14818,1621,1.007959,8.597578,4.568137,0.111914,-0.62592,-0.22223,25.668236
14828,1645,1.225831,8.743625,4.821922,0.070346,-0.639243,-0.209972,25.662354
14838,1665,1.400608,9.198523,5.374983,0.053559,-0.628851,-0.212904,25.665295
14848,1664,1.546654,9.871294,6.023811,0.055424,-0.614995,-0.223828,25.674118
14858,1714,1.625663,10.546458,6.411672,0.055957,-0.633648,-0.229957,25.665295
14868,1731,1.630451,10.960655,6.452374,0.053292,-0.680812,-0.219565,25.671177
14878,1762,1.601721,10.766725,6.232107,0.053559,-0.716518,-0.195317,25.656471
14888,1799,1.553837,10.177752,6.076484,0.03544,-0.69227,-0.173201,25.668236
14898,1819,1.575385,9.713276,6.10282,-0.011724,-0.63498,-0.166006,25.656471
14908,1833,1.673547,9.540894,6.167464,-0.073011,-0.620325,-0.163874,25.662354
14918,1867,1.817199,9.325416,6.090849,-0.124971,-0.686141,-0.158545,25.671177
14928,1878,2.003947,8.899248,5.875371,-0.170802,-0.792193,-0.168671,25.665295
14938,1903,2.197877,8.346188,5.600038,-0.224894,-0.864671,-0.197449,25.668236
14948,1980,2.394202,7.821857,5.341464,-0.272858,-0.899577,-0.232355,25.665295
14958,2071,2.63841,7.386112,5.056554,-0.301103,-0.924625,-0.269127,25.671177
14968,2103,2.846706,7.022193,4.845864,-0.32242,-0.96113,-0.291776,25.674118
14978,2193,3.019088,6.631939,4.754885,-0.344536,-1.011758,-0.294441,25.665295
14988,2202,3.165135,6.124368,4.74052,-0.364521,-1.073577,-0.278453,25.677059
14998,2192,3.339911,5.741296,4.977545,-0.372248,-1.141259,-0.249675,25.674118
15008,2090,3.552995,5.590461,5.453991,-0.398894,-1.225994,-0.209972,25.662354
15018,2112,3.845088,5.633556,5.81791,-0.471372,-1.313394,-0.195317,25.671177
15028,2007,4.103662,6.004658,5.887342,-0.574493,-1.338174,-0.272591,25.659412
15038,1884,4.240131,6.713342,5.839458,-0.637378,-1.284882,-0.460447,25.662354
15048,1995,4.084508,7.565677,5.8634,-0.601139,-1.210006,-0.69227,25.662354
15058,1923,3.610456,7.970297,6.081272,-0.487093,-1.167372,-0.884655,25.671177
15068,1878,2.954445,7.82904,6.224925,-0.363988,-1.147654,-0.990708,25.665295
15078,1894,2.355895,7.541735,6.22253,-0.29524,-1.123939,-1.004564,25.674118
15088,1959,1.960851,7.366959,6.105214,-0.318156,-1.096227,-0.939014,25.644707
15098,1845,1.697489,7.338228,5.904101,-0.401026,-1.09143,-0.878793,25.662354
15108,1490,1.613692,7.417237,5.74369,-0.502815,-1.092496,-0.84815,25.674118
15118,2821,1.723825,7.520187,5.671864,-0.562769,-1.097825,-0.810579,25.662354
15128,4095,1.934515,7.493851,5.50427,-0.540652,-1.097559,-0.766346,25.668236
15138,4095,2.209848,7.36217,5.288792,-0.490025,-1.075443,-0.733305,25.665295
15148,1582,2.451663,7.201759,5.046977,-0.462845,-1.038937,-0.722646,25.65353
15158,1518,2.631228,7.082048,4.874595,-0.456717,-1.005097,-0.743164,25.656471
15168,1916,2.736573,7.043741,4.714183,-0.458582,-0.981914,-0.781268,25.659412
15178,1899,2.695871,6.878541,4.742914,-0.456983,-0.962462,-0.812977,25.656471
15188,1873,2.578555,6.593631,4.778827,-0.445792,-0.940879,-0.828165,25.671177
15198,1910,2.425326,6.533776,4.659117,-0.419145,-0.915565,-0.831629,25.671177
15208,1913,2.329558,6.610391,4.505888,-0.384772,-0.883057,-0.822836,25.659412
15218,1938,2.240973,6.679823,4.450821,-0.347467,-0.851614,-0.807115,25.662354
15228,2043,2.161964,6.667852,4.486734,-0.303767,-0.826567,-0.795124,25.659412
15238,1968,2.109292,6.651093,4.534618,-0.254472,-0.802851,-0.785531,25.665295
15248,1989,2.099715,6.727707,4.469975,-0.207574,-0.775672,-0.769277,25.677059
15258,2039,2.118869,6.86657,4.331111,-0.180395,-0.751158,-0.741299,25.662354
15268,1969,2.161964,7.022193,4.146757,-0.17027,-0.72691,-0.703994,25.682941
15278,2023,2.260126,7.113173,4.07972,-0.163608,-0.698398,-0.666423,25.668236
15288,2059,2.341529,7.060501,4.180276,-0.151617,-0.663492,-0.646172,25.682941
15298,2128,2.363077,6.964733,4.311957,-0.129501,-0.627519,-0.644306,25.671177
15308,2179,2.336741,6.885724,4.371812,-0.102588,-0.595277,-0.641109,25.671177
15318,2206,2.264915,6.789956,4.357447,-0.077008,-0.560904,-0.628585,25.659412
15328,2110,2.152387,6.720524,4.343082,-0.067415,-0.515871,-0.610732,25.68
15338,2112,2.070984,6.806715,4.381389,-0.074077,-0.465776,-0.594744,25.674118
15348,2173,1.999158,7.015011,4.446033,-0.082603,-0.421277,-0.577691,25.68
15358,2167,1.941698,7.295133,4.51307,-0.075409,-0.38344,-0.560104,25.674118
15368,2164,1.889025,7.620744,4.58729,-0.04743,-0.346401,-0.541452,25.68
15378,2191,1.857901,7.94875,4.72376,-0.009859,-0.302968,-0.518003,25.665295
15388,2199,1.836353,8.408437,4.908113,0.026646,-0.248609,-0.48736,25.662354
15398,2096,1.786075,8.884883,4.999093,0.06928,-0.186524,-0.456717,25.68
15408,1983,1.692701,9.246407,4.987122,0.118043,-0.125504,-0.436199,25.682941
15418,1937,1.592144,9.318233,4.924873,0.166273,-0.088998,-0.428205,25.68
15428,1840,1.491588,9.088389,4.788404,0.193185,-0.08287,-0.42181,25.682941
15438,1771,1.398214,8.710106,4.750096,0.188389,-0.090864,-0.409819,25.688824
15448,1787,1.328782,8.389283,4.781221,0.152683,-0.099657,-0.393299,25.677059
15458,1794,1.285686,8.422802,4.996699,0.085801,-0.097259,-0.37358,25.682941
15468,1798,1.223437,8.848969,5.305551,0.024248,-0.090864,-0.349066,25.674118
15478,1837,1.182736,9.512163,5.746084,-0.001066,-0.097525,-0.311228,25.677059
15488,1840,1.161188,10.15381,6.203377,0.024781,-0.109783,-0.266995,25.694706
15498,1815,1.163582,10.599131,6.617573,0.058622,-0.100989,-0.227292,25.677059
15508,1908,1.163582,10.761936,6.770802,0.073011,-0.062352,-0.193185,25.68
15518,1984,1.163582,10.596737,6.665458,0.080738,-0.019985,-0.162276,25.685883
15528,1874,1.211466,10.149021,6.603208,0.083936,0.00453,-0.145222,25.668236
15538,1936,1.273715,9.655815,6.706159,0.068214,0.002132,-0.144423,25.68
15548,1809,1.374272,9.342175,6.861782,0.032508,-0.027979,-0.151617,25.682941
15558,1806,1.429338,9.23683,6.854599,-0.00906,-0.083136,-0.15668,25.665295
15568,1854,1.419762,9.100361,6.615179,-0.046364,-0.14762,-0.15215,25.668236
15578,1883,1.323994,8.865729,6.356606,-0.069014,-0.180129,-0.14762,25.650589
15588,1945,1.11091,8.59279,6.217742,-0.068214,-0.169737,-0.14309,25.662354
15598,1943,0.873884,8.339005,6.095637,-0.044233,-0.144689,-0.124172,25.665295
15608,1855,0.6608,8.039729,5.884948,-0.005329,-0.13483,-0.089798,25.671177
15618,1876,0.486023,7.654263,5.542577,0.038371,-0.136695,-0.036772,25.674118
15628,1787,0.292093,7.120356,5.279215,0.068747,-0.140426,0.018919,25.677059
15638,1826,0.083797,6.426037,5.142745,0.078606,-0.11298,0.0437,25.68
15648,1808,-0.11971,5.846641,5.262455,0.07008,-0.027179,0.031443,25.682941
15658,1827,-0.311246,5.492299,5.681441,0.047963,0.093528,0.001599,25.674118
15668,1890,-0.562637,5.509058,6.318298,0.015188,0.209972,-0.035706,25.685883
15678,1861,-0.88346,5.920861,6.864176,-0.001332,0.244613,-0.0437,25.677059
15688,1873,-1.321599,6.619968,6.885724,-0.025847,0.201712,0.007461,25.677059
15698,1965,-1.697489,7.450756,6.694188,-0.061553,0.133764,0.112181,25.677059
15708,2002,-1.879448,8.104373,6.454768,-0.047963,0.06928,0.252073,25.691765
15718,2062,-1.714248,8.346188,6.385336,0.002665,0.047697,0.376778,25.691765
15728,2217,-1.221043,8.26239,6.574478,0.075942,0.049029,0.490824,25.677059
15738,2070,-0.514753,8.159439,6.675035,0.129501,0.036772,0.569164,25.688824
15748,1738,0.272939,8.171411,6.46195,0.120708,-0.014922,0.623522,25.671177
15758,1611,1.055843,8.221688,5.942409,0.047697,-0.054358,0.631783,25.668236
15768,1622,1.723825,8.238448,5.456386,-0.050628,-0.042634,0.577158,25.671177
15778,1639,2.245761,8.099585,5.245696,-0.104187,0.002931,0.479366,25.674118
15788,1634,2.506729,7.826645,5.145139,-0.090064,0.043167,0.363455,25.68
15798,1658,2.470816,7.49864,4.987122,-0.047697,0.082337,0.24781,25.694706
15808,1665,2.164358,7.273585,4.728549,-0.041302,0.105786,0.165207,25.691765
15818,1783,1.747767,7.165846,4.493917,-0.077541,0.097525,0.127369,25.685883
15828,1671,1.37906,7.134721,4.299986,-0.121507,0.061553,0.126836,25.68
15838,1648,1.067814,7.156269,4.276044,-0.147087,0.011191,0.154815,25.671177
15848,1470,0.897826,7.137115,4.297592,-0.141225,-0.039969,0.197182,25.68
15858,2083,0.876278,7.089231,4.333505,-0.107384,-0.081804,0.242481,25.671177
15868,4095,0.969652,6.991069,4.252102,-0.063951,-0.10392,0.264864,25.688824
15878,4095,1.09415,6.924031,4.060566,-0.029844,-0.097792,0.24408,25.691765
15888,1808,1.204283,6.914454,3.919308,-0.010392,-0.086067,0.186524,25.674118
15898,1123,1.218649,6.964733,3.847482,-0.001865,-0.085801,0.117243,25.674118
15908,1793,1.170765,7.062895,3.8403,-0.002132,-0.089265,0.05276,25.671177
15918,1702,1.091756,7.103596,3.964798,-0.009326,-0.089265,0.003464,25.682941
15928,1687,1.022324,7.026982,4.098873,-0.005862,-0.089531,-0.028511,25.677059
15938,1661,0.950498,7.017405,4.058172,0.010925,-0.089798,-0.047963,25.68
15948,1727,0.924162,7.115568,3.931279,0.025047,-0.098325,-0.06102,25.685883
15958,1794,0.919373,7.184999,3.790021,0.022116,-0.114312,-0.070613,25.68
15968,1781,0.924162,7.151481,3.79481,0.024248,-0.133498,-0.07834,25.68
15978,1794,0.914585,7.060501,3.866636,0.038637,-0.14762,-0.092462,25.671177
15988,1862,0.905008,7.053318,3.998317,0.057822,-0.157479,-0.104187,25.68
15998,1840,0.893037,7.189788,4.024653,0.062885,-0.168138,-0.112714,25.68
16008,1792,0.845153,7.381324,3.986346,0.057289,-0.175332,-0.133764,25.694706
16018,1887,0.720655,7.560889,4.036624,0.065283,-0.180662,-0.166539,25.682941
16028,2022,0.610521,7.654263,4.180276,0.09566,-0.194518,-0.191587,25.677059
16038,1872,0.493206,7.759608,4.316746,0.130833,-0.2169,-0.199847,25.685883
16048,1911,0.430956,8.066066,4.429273,0.154282,-0.249409,-0.189721,25.677059
16058,1953,0.414197,8.571242,4.520253,0.167871,-0.288579,-0.171069,25.671177
16068,1947,0.442927,9.188946,4.548983,0.189188,-0.327482,-0.151351,25.665295
16078,2087,0.517148,9.677363,4.613626,0.237951,-0.355727,-0.126037,25.682941
16088,2063,0.653617,9.832987,4.635174,0.309363,-0.370116,-0.087666,25.671177
16098,2057,0.778116,9.61272,4.52983,0.364787,-0.387969,-0.037838,25.677059
16108,2078,0.933739,9.150639,4.292804,0.367185,-0.40449,0.01279,25.691765
16118,2069,1.09415,8.805874,4.070143,0.31256,-0.405289,0.043433,25.694706
16128,2067,1.271321,8.662222,3.945644,0.237418,-0.389568,0.050361,25.703529
16138,1994,1.39582,8.777143,4.106056,0.185991,-0.375179,0.041035,25.691765
16148,1897,1.405396,9.212888,4.702212,0.167338,-0.375446,0.027712,25.674118
16158,1818,1.343147,10.058042,5.511452,0.177198,-0.392499,0.026913,25.682941
16168,1776,1.314417,11.180922,6.042965,0.210772,-0.426074,0.049562,25.685883
16178,1737,1.288081,12.107478,6.184223,0.256603,-0.455118,0.095127,25.682941
16188,1744,1.321599,12.272678,6.244078,0.292842,-0.441528,0.158545,25.691765
16198,1732,1.503559,11.700463,6.335058,0.293908,-0.392766,0.213436,25.688824
16208,1750,1.75495,10.852917,6.311116,0.251008,-0.358392,0.240882,25.694706
16218,1767,2.020706,10.06283,6.167464,0.167871,-0.368251,0.248343,25.682941
16228,1749,2.317587,9.404425,6.002264,0.065017,-0.423142,0.241681,25.682941
16238,1759,2.621651,8.884883,5.731719,-0.053559,-0.501216,0.217966,25.682941
16248,1872,2.873042,8.413225,5.521029,-0.177997,-0.576625,0.172135,25.677059
16258,1759,3.026271,7.958326,5.461174,-0.281384,-0.628319,0.093262,25.688824
16268,1753,3.009511,7.620744,5.396531,-0.326683,-0.639776,-0.000266,25.685883
16278,1830,2.92332,7.311892,5.135562,-0.3043,-0.620325,-0.06928,25.685883
16288,1868,2.777274,6.861782,4.903325,-0.252873,-0.59581,-0.106319,25.682941
16298,1888,2.650381,6.311116,4.855441,-0.226227,-0.589681,-0.124704,25.697647
16308,1909,2.63841,5.901707,5.133168,-0.251008,-0.611531,-0.129767,25.697647
16318,1965,2.712631,5.748478,5.628768,-0.311495,-0.666156,-0.123106,25.697647
16328,1917,2.794033,5.89213,5.89213,-0.375179,-0.72158,-0.130833,25.674118
16338,1950,2.8491,6.260838,5.841852,-0.405023,-0.737302,-0.180129,25.671177
16348,1841,2.767697,6.720524,5.755661,-0.385571,-0.699464,-0.260067,25.674118
16358,1908,2.571373,7.10599,5.920861,-0.330946,-0.638711,-0.338141,25.68
16368,1796,2.27928,7.290344,6.090849,-0.257936,-0.592346,-0.384505,25.674118
16378,1843,1.977611,7.345411,6.052542,-0.195051,-0.547047,-0.402092,25.685883
16388,1921,1.774103,7.477092,5.8634,-0.162276,-0.493489,-0.405023,25.691765
16398,2005,1.685518,7.666234,5.71496,-0.170802,-0.451654,-0.393565,25.674118
16408,2041,1.666364,7.819463,5.626374,-0.207308,-0.442328,-0.386371,25.691765
16418,2231,1.704672,7.862558,5.631162,-0.237685,-0.446325,-0.394098,25.691765
16428,2183,1.702277,7.82904,5.57849,-0.242481,-0.433801,-0.410885,25.691765
16438,2010,1.63524,7.714118,5.398925,-0.227292,-0.398361,-0.428472,25.682941
16448,1930,1.54426,7.606379,5.106832,-0.202511,-0.355194,-0.439397,25.700588
16458,1847,1.422156,7.546524,4.790798,-0.192386,-0.318156,-0.42634,25.697647
16468,1762,1.331176,7.520187,4.462792,-0.196116,-0.285914,-0.392766,25.697647
16478,1729,1.256956,7.469909,4.264073,-0.197982,-0.247544,-0.35253,25.68
16488,1776,1.223437,7.364564,4.118027,-0.17773,-0.19958,-0.317357,25.685883
16498,1754,1.177947,7.244854,4.027047,-0.14389,-0.137495,-0.292043,25.691765
16508,1776,1.21386,7.151481,3.98874,-0.112714,-0.075675,-0.269394,25.70647
16518,1831,1.249773,7.163452,3.912126,-0.092462,-0.033041,-0.23875,25.685883
16528,1823,1.345541,7.189788,3.813963,-0.079939,-0.015188,-0.198781,25.691765
16538,1775,1.381454,7.113173,3.684676,-0.068214,-0.001332,-0.159345,25.685883
16548,1525,1.441309,7.019799,3.677494,-0.058888,0.024248,-0.134031,25.715294
16558,2704,1.431733,6.983886,3.713407,-0.050361,0.05276,-0.123106,25.700588
16568,4095,1.367089,7.050924,3.651158,-0.042368,0.072211,-0.116178,25.694706
16578,4095,1.252167,7.16824,3.598485,-0.040236,0.0874,-0.100456,25.685883
16588,1347,1.187524,7.225701,3.603274,-0.039703,0.104986,-0.068481,25.697647
16598,1244,1.199495,7.199365,3.58412,-0.028511,0.122573,-0.024515,25.691765
16608,1821,1.249773,7.175423,3.514688,-0.009326,0.142824,0.019185,25.688824
16618,1766,1.37906,7.017405,3.490746,-0.005063,0.171868,0.05196,25.68
16628,1808,1.493982,6.655881,3.552995,-0.019452,0.203311,0.069813,25.694706
16638,1815,1.563414,6.426037,3.541024,-0.030377,0.232622,0.067681,25.691765
16648,1821,1.553837,6.411672,3.524265,-0.04743,0.251274,0.048763,25.685883
16658,1948,1.484405,6.526594,3.639187,-0.08287,0.255804,0.034907,25.677059
16668,1906,1.374272,6.773197,3.890578,-0.120974,0.263798,0.036772,25.674118
16678,1838,1.271321,7.220912,4.156334,-0.140959,0.289645,0.055158,25.688824
16688,1858,1.216254,7.680599,4.288015,-0.132165,0.317623,0.090331,25.68
16698,1921,1.247379,7.965509,4.367024,-0.088732,0.338407,0.137495,25.691765
16708,1963,1.383849,8.066066,4.522647,-0.034107,0.36079,0.174799,25.694706
16718,1967,1.592144,8.214506,4.72376,0.009593,0.384772,0.189988,25.694706
16728,2026,1.762132,8.63828,4.821922,0.042368,0.402891,0.185991,25.715294
16738,2130,1.908179,9.121908,4.821922,0.071678,0.411152,0.167871,25.697647
16748,2043,1.963245,9.382876,4.711789,0.098858,0.429804,0.136429,25.715294
16758,2176,1.960851,9.279925,4.608838,0.12124,0.461513,0.106585,25.691765
16768,2186,1.867477,8.987833,4.434062,0.128168,0.490824,0.088998,25.688824
16778,2109,1.73819,8.767567,4.249708,0.111914,0.505213,0.083136,25.691765
16788,2149,1.582567,8.700529,4.158728,0.077541,0.51294,0.089531,25.688824
16798,2150,1.39582,8.760384,4.280833,0.055158,0.525198,0.107651,25.697647
16808,2183,1.23062,8.913613,4.752491,0.066349,0.546248,0.130833,25.685883
16818,2203,1.137246,9.471462,5.513846,0.092995,0.579556,0.164674,25.682941
16828,2195,1.058237,10.500969,6.112397,0.107651,0.620591,0.208374,25.691765
16838,2070,1.005565,11.57836,6.46195,0.119908,0.654965,0.248343,25.682941
16848,2000,0.969652,11.968615,6.806715,0.15215,0.682943,0.275789,25.68
16858,1925,1.000776,11.473015,7.184999,0.205443,0.713587,0.292576,25.703529
16868,1933,1.007959,10.70687,7.216124,0.239017,0.742364,0.301902,25.694706
16878,1926,1.022324,10.086772,6.823475,0.208907,0.755421,0.306432,25.671177
16888,1852,0.938527,9.629479,6.442797,0.12124,0.75702,0.301103,25.694706
16898,1873,0.778116,9.155427,6.208165,0.020251,0.770609,0.275522,25.682941
16908,1917,0.54109,8.566454,6.033388,-0.037038,0.800453,0.241149,25.700588
16918,1907,0.237026,7.843405,5.760449,-0.034107,0.837225,0.219032,25.703529
16928,1930,-0.098162,7.127539,5.415684,-0.005329,0.877994,0.215835,25.697647
16938,1986,-0.318429,6.514623,5.2026,0.001599,0.90917,0.233155,25.688824
16948,1989,-0.553061,6.002264,5.257667,-0.029844,0.922227,0.261933,25.691765
16958,1975,-0.799663,5.6982,5.688623,-0.087933,0.949672,0.286714,25.703529
16968,2031,-1.106121,5.758055,6.428432,-0.16121,1.015755,0.299504,25.682941
16978,2066,-1.446098,6.299145,7.082048,-0.230224,1.077574,0.311761,25.697647
16988,2091,-1.764527,7.273585,7.304709,-0.231556,1.070913,0.372515,25.691765
16998,2102,-1.886631,8.298303,7.264008,-0.162809,0.993106,0.505479,25.694706
17008,2095,-1.640028,8.913613,7.211336,-0.054625,0.917164,0.649369,25.691765
17018,2127,-0.984017,9.023746,7.173028,0.053825,0.862539,0.741565,25.691765
17028,2130,-0.181959,8.892065,6.955156,0.133498,0.788196,0.801253,25.700588
17038,2222,0.653617,8.683769,6.442797,0.134564,0.709323,0.850548,25.685883
17048,2183,1.412579,8.50181,5.868188,0.03091,0.730907,0.86627,25.682941
17058,2141,2.118869,8.350976,5.576096,-0.094061,0.855877,0.824435,25.685883
17068,2351,2.607286,8.178593,5.585672,-0.129767,0.929954,0.725577,25.682941
17078,2108,2.760514,7.927202,5.432444,-0.088998,0.886254,0.590214,25.671177
17088,2016,2.530671,7.625533,5.039794,-0.071678,0.788729,0.449256,25.677059
17098,2182,2.080561,7.438785,4.618415,-0.107651,0.696799,0.349332,25.694706
17108,2267,1.608904,7.350199,4.352659,-0.164674,0.611798,0.320021,25.70647
17118,2381,1.240196,7.33344,4.237737,-0.209706,0.51827,0.351464,25.70647
17128,2405,0.991199,7.299921,4.139575,-0.232888,0.423675,0.408487,25.700588
17138,2367,0.92895,7.230489,4.050989,-0.222496,0.350665,0.459648,25.685883
17148,2493,0.940921,7.043741,3.955221,-0.185191,0.293908,0.491357,25.685883
17158,2222,1.010353,6.789956,3.8403,-0.144689,0.254472,0.483363,25.677059
17168,1978,1.072602,6.557718,3.768473,-0.120175,0.224628,0.435666,25.709412
17178,1941,1.043872,6.435614,3.758897,-0.113513,0.187323,0.372781,25.688824
17188,1938,0.94571,6.392519,3.722984,-0.118309,0.138028,0.318423,25.697647
17198,1909,0.804452,6.416461,3.758897,-0.129234,0.095127,0.27419,25.70647
17208,1920,0.699107,6.562507,3.79481,-0.145222,0.065283,0.255271,25.712353
17218,2020,0.634463,6.732495,3.835511,-0.154548,0.038371,0.260867,25.700588
17228,1971,0.579397,6.907272,3.892972,-0.146288,0.027979,0.278453,25.712353
17238,1856,0.56982,6.964733,3.936068,-0.123905,0.039703,0.289645,25.700588
17248,1823,0.572214,6.995857,3.94325,-0.09566,0.063951,0.284848,25.691765
17258,1606,0.584185,7.053318,3.892972,-0.079672,0.079139,0.262998,25.685883
17268,3081,0.536301,7.161057,3.938462,-0.080205,0.065283,0.23955,25.688824
17278,4095,0.462081,7.240066,3.981557,-0.083403,0.041302,0.2169,25.691765
17288,4095,0.342371,7.204153,3.995923,-0.069014,0.037038,0.186257,25.700588
17298,1466,0.253785,7.067683,4.065354,-0.037305,0.053559,0.159877,25.700588
17308,1455,0.23942,6.950367,4.110844,-0.005596,0.063685,0.147087,25.697647
17318,1835,0.301669,6.885724,4.189853,-0.002931,0.050894,0.153749,25.697647
17328,1773,0.462081,6.950367,4.362236,-0.0429,0.018652,0.179596,25.718235
17338,1811,0.701501,7.283162,4.577713,-0.085268,-0.041568,0.195317,25.691765
17348,1776,0.960075,7.884106,4.771644,-0.083669,-0.114312,0.171602,25.688824
17358,1808,1.144428,8.537724,4.982334,-0.033841,-0.195583,0.119908,25.700588
17368,1808,1.192312,9.112331,5.152322,0.055158,-0.266995,0.058089,25.709412
17378,1865,1.091756,9.548077,5.092467,0.157746,-0.303234,0.011724,25.70647
17388,1856,0.962469,9.68694,4.855441,0.234221,-0.31256,0.002931,25.697647
17398,1861,0.885855,9.449914,4.568137,0.260334,-0.314159,0.041835,25.697647
17408,1903,0.952892,8.999804,4.331111,0.225161,-0.32162,0.101789,25.70647
17418,1921,1.089362,8.60955,4.266468,0.142557,-0.335476,0.155881,25.712353
17428,1959,1.331176,8.525752,4.441244,0.058888,-0.349066,0.190521,25.700588
17438,1990,1.630451,8.868123,4.96318,0.005862,-0.367452,0.198781,25.709412
17448,1994,1.867477,9.701305,5.674258,-0.008793,-0.387969,0.188389,25.709412
17458,2064,1.999158,10.723629,6.370971,0.00906,-0.409819,0.166806,25.697647
17468,2100,2.006341,11.676521,7.024588,0.033041,-0.428205,0.143623,25.703529
17478,2181,1.941698,12.291832,7.493851,0.054358,-0.428205,0.127636,25.694706
17488,2226,1.833959,12.20564,7.654263,0.10925,-0.414083,0.127636,25.697647
17498,2257,1.759738,11.410766,7.522582,0.17773,-0.380242,0.149219,25.700588
17508,2256,1.877054,10.477027,7.295133,0.179596,-0.347201,0.19132,25.697647
17518,2286,2.214637,9.78989,7.022193,0.093795,-0.369317,0.237951,25.70647
17528,2257,2.633622,9.196129,6.708553,-0.026646,-0.458848,0.261666,25.697647
17538,2241,2.987964,8.537724,6.481104,-0.128435,-0.558239,0.24781,25.712353
17548,2157,3.284845,7.838616,6.23929,-0.191587,-0.609133,0.200646,25.700588
17558,2093,3.490746,7.283162,5.944803,-0.229424,-0.594211,0.119642,25.694706
17568,2000,3.591303,6.900089,5.683835,-0.246211,-0.522,-0.005862,25.694706
17578,1855,3.596091,6.691794,5.571307,-0.248343,-0.431669,-0.148686,25.700588
17588,1926,3.524265,6.591237,5.712565,-0.23502,-0.384239,-0.26966,25.709412
17598,1922,3.416526,6.524199,6.083666,-0.211571,-0.416481,-0.346668,25.715294
17608,1842,3.3447,6.533776,6.440403,-0.202778,-0.512407,-0.361856,25.718235
17618,1830,3.270479,6.584054,6.588843,-0.211571,-0.613397,-0.342671,25.738823
17628,1957,3.169923,6.756437,6.378153,-0.213436,-0.649636,-0.333345,25.715294
17638,1847,3.055001,7.017405,6.059724,-0.185724,-0.583286,-0.364254,25.712353
17648,1875,2.928109,7.218518,5.959168,-0.140159,-0.48283,-0.425541,25.718235
17658,1829,2.794033,7.299921,6.081272,-0.086334,-0.443394,-0.472971,25.721176
17668,1894,2.643199,7.25922,6.095637,-0.05196,-0.454851,-0.492689,25.70647
17678,1847,2.425326,7.141904,5.882554,-0.042101,-0.476435,-0.500949,25.70647
17688,1859,2.135628,7.062895,5.453991,-0.069547,-0.468175,-0.522799,25.709412
17698,1859,1.929727,6.98628,5.216966,-0.11751,-0.446325,-0.560637,25.712353
17708,1865,1.762132,6.950367,5.125986,-0.158812,-0.430337,-0.589415,25.712353
17718,1913,1.625663,6.861782,5.130774,-0.177997,-0.419412,-0.600873,25.712353
17728,1844,1.525106,6.725313,5.056554,-0.174,-0.399694,-0.596609,25.709412
17738,1759,1.458069,6.665458,4.929661,-0.158545,-0.370649,-0.581954,25.709412
